head_ACCEL_x	head_ACCEL_y	head_ACCEL_z	head_GYRO_x	head_GYRO_y	head_GYRO_z	head_MAGN_x	head_MAGN_y	head_MAGN_z	sternum_ACCEL_x	sternum_ACCEL_y	sternum_ACCEL_z	sternum_GYRO_x	sternum_GYRO_y	sternum_GYRO_z	sternum_MAGN_x	sternum_MAGN_y	sternum_MAGN_z	left_upper_arm_ACCEL_x	left_upper_arm_ACCEL_y	left_upper_arm_ACCEL_z	left_upper_arm_GYRO_x	left_upper_arm_GYRO_y	left_upper_arm_GYRO_z	left_upper_arm_MAGN_x	left_upper_arm_MAGN_y	left_upper_arm_MAGN_z	left_fore_arm_ACCEL_x	left_fore_arm_ACCEL_y	left_fore_arm_ACCEL_z	left_fore_arm_GYRO_x	left_fore_arm_GYRO_y	left_fore_arm_GYRO_z	left_fore_arm_MAGN_x	left_fore_arm_MAGN_y	left_fore_arm_MAGN_z	right_upper_arm_ACCEL_x	right_upper_arm_ACCEL_y	right_upper_arm_ACCEL_z	right_upper_arm_GYRO_x	right_upper_arm_GYRO_y	right_upper_arm_GYRO_z	right_upper_arm_MAGN_x	right_upper_arm_MAGN_y	right_upper_arm_MAGN_z	right_fore_arm_ACCEL_x	right_fore_arm_ACCEL_y	right_fore_arm_ACCEL_z	right_fore_arm_GYRO_x	right_fore_arm_GYRO_y	right_fore_arm_GYRO_z	right_fore_arm_MAGN_x	right_fore_arm_MAGN_y	right_fore_arm_MAGN_z	pelvis_ACCEL_x	pelvis_ACCEL_y	pelvis_ACCEL_z	pelvis_GYRO_x	pelvis_GYRO_y	pelvis_GYRO_z	pelvis_MAGN_x	pelvis_MAGN_y	pelvis_MAGN_z	left_thigh_ACCEL_x	left_thigh_ACCEL_y	left_thigh_ACCEL_z	left_thigh_GYRO_x	left_thigh_GYRO_y	left_thigh_GYRO_z	left_thigh_MAGN_x	left_thigh_MAGN_y	left_thigh_MAGN_z	left_shank_ACCEL_x	left_shank_ACCEL_y	left_shank_ACCEL_z	left_shank_GYRO_x	left_shank_GYRO_y	left_shank_GYRO_z	left_shank_MAGN_x	left_shank_MAGN_y	left_shank_MAGN_z	left_foot_ACCEL_x	left_foot_ACCEL_y	left_foot_ACCEL_z	left_foot_GYRO_x	left_foot_GYRO_y	left_foot_GYRO_z	left_foot_MAGN_x	left_foot_MAGN_y	left_foot_MAGN_z	right_thigh_ACCEL_x	right_thigh_ACCEL_y	right_thigh_ACCEL_z	right_thigh_GYRO_x	right_thigh_GYRO_y	right_thigh_GYRO_z	right_thigh_MAGN_x	right_thigh_MAGN_y	right_thigh_MAGN_z	right_shank_ACCEL_x	right_shank_ACCEL_y	right_shank_ACCEL_z	right_shank_GYRO_x	right_shank_GYRO_y	right_shank_GYRO_z	right_shank_MAGN_x	right_shank_MAGN_y	right_shank_MAGN_z	right_foot_ACCEL_x	right_foot_ACCEL_y	right_foot_ACCEL_z	right_foot_GYRO_x	right_foot_GYRO_y	right_foot_GYRO_z	right_foot_MAGN_x	right_foot_MAGN_y	right_foot_MAGN_z	left_ankle_ACCEL_x	left_ankle_ACCEL_y	left_ankle_ACCEL_z	left_ankle_GYRO_x	left_ankle_GYRO_y	left_ankle_GYRO_z	left_ankle_MAGN_x	left_ankle_MAGN_y	left_ankle_MAGN_z	right_ankle_ACCEL_x	right_ankle_ACCEL_y	right_ankle_ACCEL_z	right_ankle_GYRO_x	right_ankle_GYRO_y	right_ankle_GYRO_z	right_ankle_MAGN_x	right_ankle_MAGN_y	right_ankle_MAGN_z	pocket_ACCEL_x	pocket_ACCEL_y	pocket_ACCEL_z	pocket_GYRO_x	pocket_GYRO_y	pocket_GYRO_z	pocket_MAGN_x	pocket_MAGN_y	pocket_MAGN_z
0.961939697265625	-0.109874290466309	-0.227063369750977	-38.1183166503906	6.99408197402954	16.5243892669678	-0.90503603219986	0.517084538936615	-0.0878962576389313	0.973599182128906	0.059564380645752	0.230949981689453	-0.521980583667755	-0.350511252880096	-2.62178730964661	-0.822504937648773	-0.583497226238251	-0.228522926568985	0.97950439453125	0.0615151977539063	0.197750396728516	-3.05877780914307	-2.53460383415222	-0.698151469230652	-1.00464558601379	-0.134525611996651	0.333495765924454	0.948266418457031	0.21823762512207	0.240710876464844	-1.66504180431366	-2.27225804328918	-3.40654873847961	-0.911363303661346	-0.587393462657928	0.224613606929779	0.995132019042969	-0.119632080078125	0.0585936317443848	0.782589256763458	1.66084730625153	0.0	-0.78783118724823	0.296879708766937	-0.579832375049591	0.954600463867188	-0.1547705078125	0.263190856933594	1.48415350914001	1.66042041778564	0.0	-0.621586978435516	-0.0959391072392464	-0.780761241912842	0.983862731933594	0.0425025062561035	0.100140258789063	2.70756220817566	-2.0120096206665	0.522877097129822	-0.92820805311203	0.526373624801636	-0.0190444141626358	0.964855407714844	0.111869407653809	-0.214834365844727	3.31931185722351	1.92358803749084	-0.265200853347778	-0.748775243759155	-0.515616893768311	0.681636333465576	0.973549194335937	0.185553283691406	-0.111846527099609	2.96892070770264	0.258810311555862	0.170900985598564	-0.925304591655731	-0.658217787742615	-0.584479510784149	-0.51718994140625	-0.230532455444336	0.8285078125	-0.530444383621216	0.795036852359772	-0.44344761967659	0.362785220146179	1.20800089836121	-0.772219121456146	0.966760925292969	-0.137167083740234	-0.208056945800781	1.57374918460846	-1.22158086299896	0.352565854787827	-0.897958874702454	0.271481215953827	-0.56542831659317	0.9917314453125	0.022948070526123	-0.151868621826172	-0.613452017307281	-0.267271429300308	1.31051480770111	-0.808103859424591	-0.76757425069809	0.598643660545349	-0.492803009033203	0.131324554443359	0.867291076660156	-0.442924648523331	0.0	0.179989159107208	0.203134953975677	0.893055617809296	-1.16308677196503	0.972176940917969	-0.0689017944335937	-0.217774490356445	2.71482253074646	0.349449276924133	-1.1342853307724	-0.860832273960114	0.0605394281446934	1.11499583721161	0.96775146484375	0.189475784301758	-0.183086837768555	-0.43360698223114	-0.438452571630478	-1.05293464660645	-1.11302244663239	0.206056788563728	-0.776114463806152	-0.146012588500977	0.948766296386719	0.273420867919922	-3.31662487983704	1.39850687980652	0.0	0.596189558506012	-0.607180774211884	-0.598637282848358
0.960899963378906	-0.11327758026123	-0.219718353271484	-37.5107498168945	6.99408197402954	16.2611103057861	-0.90040534734726	0.521483778953552	-0.0996016561985016	0.977523071289062	0.0600520210266113	0.241691833496094	-0.0889739617705345	-0.612256705760956	-0.962188899517059	-0.822264790534973	-0.583497226238251	-0.228522926568985	0.986814147949219	0.0688557968139648	0.19285417175293	-3.41284847259521	-2.53460383415222	-0.698151469230652	-1.00585734844208	-0.135746315121651	0.334964483976364	0.946263366699219	0.218760223388672	0.244636215209961	-2.01146006584167	-1.48381197452545	-3.93450093269348	-0.911141097545624	-0.587896823883057	0.224613606929779	0.99660009765625	-0.116690887451172	0.0630035591125488	0.701281309127808	1.66084730625153	0.0	-0.786633729934692	0.294429451227188	-0.585948586463928	0.959007751464844	-0.157217315673828	0.258788818359375	1.83081710338593	1.05101084709167	-0.524590194225311	-0.623059988021851	-0.0971724912524223	-0.777830839157104	0.986330322265625	0.0483649215698242	0.117195541381836	2.79821705818176	-2.0120096206665	0.0	-0.925784468650818	0.521486878395081	-0.0273488610982895	0.968685729980469	0.117219688415527	-0.220242904663086	3.93188881874084	0.792830228805542	0.0	-0.747559189796448	-0.515616893768311	0.685533940792084	0.981478881835937	0.186063385009766	-0.102553634643555	3.41045260429382	0.0	0.872494518756866	-0.925304591655731	-0.658217787742615	-0.584479510784149	-0.511674865722656	-0.227951873779297	0.831606689453125	-0.61205118894577	0.0	-0.614004373550415	0.365226119756699	1.20556557178497	-0.776361525058746	0.97653271484375	-0.130853958129883	-0.200655258178711	1.83920085430145	-0.701081216335297	0.876894533634186	-0.89551192522049	0.273921251296997	-0.555670022964478	0.995636901855469	0.0176056632995605	-0.153280853271484	-0.613452017307281	-0.437353253364563	1.4826991558075	-0.808103859424591	-0.76757425069809	0.598643660545349	-0.492803009033203	0.131324554443359	0.862670166015625	0.344496935606003	0.0	0.347979038953781	0.203134953975677	0.893055617809296	-1.16308677196503	0.968279541015625	-0.071219596862793	-0.221150833129883	2.10014581680298	0.349449276924133	-1.66553282737732	-0.85938024520874	0.0615126229822636	1.09862542152405	0.969689392089844	0.187566696166992	-0.171839462280273	-0.698589026927948	-0.438452571630478	-0.869815528392792	-1.11181616783142	0.203600034117699	-0.77344423532486	-0.152368789672852	0.943878234863281	0.277337524414063	-2.53110837936401	1.39850687980652	0.0	0.598635792732239	-0.603527665138245	-0.594719767570496
0.965342468261719	-0.112308586120605	-0.221692825317383	-37.6824531555176	7.17090892791748	15.9978303909302	-0.899425745010376	0.522206664085388	-0.095952533185482	0.973125549316406	0.0498115730285645	0.237798950195312	-0.172016337513924	-0.175255626440048	-2.01184940338135	-0.819833874702454	-0.586184620857239	-0.246340975165367	0.97950439453125	0.0595794906616211	0.203597351074219	-3.66856622695923	-2.62118983268738	-1.2242945432663	-1.00853610038757	-0.138435184955597	0.333746135234833	0.950657104492188	0.220693832397461	0.236331359863281	-1.83266353607178	-1.92183756828308	-2.36321473121643	-0.913585126399994	-0.591301918029785	0.223148360848427	0.999046936035156	-0.113289024353027	0.0507789878845215	0.874060750007629	2.27408313751221	0.260894238948822	-0.786364257335663	0.294429451227188	-0.586170554161072	0.958034729003906	-0.161613265991211	0.264169097900391	2.27497982978821	0.874370336532593	-0.439978837966919	-0.624267876148224	-0.0947277620434761	-0.780506432056427	0.984391540527344	0.0473878517150879	0.111859809875488	3.05809473991394	-1.92308104038239	0.522877097129822	-0.925784468650818	0.521722376346588	-0.0273488610982895	0.961025085449219	0.110896636962891	-0.207563858032227	3.06288433074951	1.40369939804077	-0.35360112786293	-0.748775243759155	-0.514408528804779	0.691173017024994	0.971206359863281	0.173820693969727	-0.12304776763916	2.19243383407593	0.08172956854105	0.521697759628296	-0.925304591655731	-0.656737804412842	-0.598136186599731	-0.509223724365234	-0.227607803344727	0.826736999511719	0.0816068276762962	-0.0836880877614021	-0.44344761967659	0.364005655050278	1.20923781394958	-0.773694515228271	0.975090942382812	-0.126932159423828	-0.192328353881836	2.09517216682434	-0.871040284633636	1.13905882835388	-0.89551192522049	0.273921251296997	-0.555670022964478	0.98489697265625	0.0161486415863037	-0.159690185546875	-0.267402172088623	0.0850409120321274	1.39660704135895	-0.804453432559967	-0.770009458065033	0.604254603385925	-0.49620166015625	0.12598998260498	0.862670166015625	0.172248467803001	0.0	-0.791952311992645	0.205563858151436	0.894516706466675	-1.16308677196503	0.973692565917969	-0.0678482513427734	-0.209432922363281	1.14398181438446	0.5241739153862	-1.75168108940125	-0.863040506839752	0.063962385058403	1.11375296115875	0.968235961914062	0.188043975830078	-0.176236938476562	-0.349294513463974	-0.261385172605515	-0.701956391334534	-1.11181616783142	0.202159866690636	-0.779051721096039	-0.147451721191406	0.949743896484375	0.277337524414063	-1.83287167549133	0.787891209125519	0.0	0.597399830818176	-0.604735553264618	-0.598883330821991
0.965342468261719	-0.113773895263672	-0.215335052490234	-37.5107498168945	6.99408197402954	16.3520603179932	-0.898446202278137	0.522950172424316	-0.0922857820987701	0.978537841796875	0.0571261787414551	0.23925617980957	-0.172016337513924	-0.0864897891879082	-2.36173629760742	-0.817372858524323	-0.588871955871582	-0.264159023761749	0.978986877441406	0.0590767135620117	0.193377075195312	-3.1472954750061	-2.44801807403564	-0.0860041677951813	-1.01121473312378	-0.14110754430294	0.332527756690979	0.947297180175781	0.215311065673828	0.242689758300781	-1.92206168174744	-1.57141709327698	-3.49454092979431	-0.916029155254364	-0.594736635684967	0.221683114767075	0.993174499511719	-0.115734115600586	0.0722773742675781	0.264250934123993	2.27408313751221	-0.173929497599602	-0.786124765872955	0.294429451227188	-0.586417198181152	0.959980773925781	-0.1547705078125	0.253408538818359	2.36164569854736	0.874370336532593	-0.609201490879059	-0.625475764274597	-0.0922830253839493	-0.783207476139069	0.990207946777344	0.048853458404541	0.110335319519043	3.05809473991394	-2.712322473526	0.435730934143066	-0.925784468650818	0.521977484226227	-0.0273488610982895	0.976537841796875	0.121110794067383	-0.227513397216797	2.79221081733704	1.05277454853058	-1.05196332931519	-0.749991297721863	-0.513178646564484	0.696784436702728	0.976612976074219	0.1782841796875	-0.114252716064453	1.75090193748474	0.0	1.05239033699036	-0.925304591655731	-0.655257880687714	-0.611818373203278	-0.5165771484375	-0.227951873779297	0.831164001464844	-0.265222191810608	-0.439362466335297	-0.614004373550415	0.362785220146179	1.21287131309509	-0.770999133586884	0.97220751953125	-0.134775741577148	-0.197301361083984	2.09517216682434	-0.966642260551453	1.2204202413559	-0.89551192522049	0.273921251296997	-0.555670022964478	0.9917314453125	0.0244050903320313	-0.151868621826172	0.0	-0.522394180297852	0.698303520679474	-0.800772070884705	-0.772472262382507	0.609865546226501	-0.487835754394531	0.135717727661133	0.868735168457031	-1.2180427312851	0.0872849375009537	0.0	0.207992747426033	0.896007061004639	-1.16308677196503	0.97650732421875	-0.0707981719970703	-0.214795349121094	2.01477408409119	0.0	-1.39272999763489	-0.866700828075409	0.0664121508598328	1.12891590595245	0.967266967773437	0.183589462280273	-0.177759140014648	-0.180669575929642	-0.261385172605515	-1.05293464660645	-1.11181616783142	0.20069146156311	-0.784659147262573	-0.148950836181641	0.951210266113281	0.277833282470703	-0.69823682308197	0.965166747570038	0.0892141088843346	0.596189558506012	-0.605943441390991	-0.603027880191803
0.962412292480469	-0.114742889404297	-0.222640563964844	-37.5965995788574	6.64418935775757	15.2127780914307	-0.897704124450684	0.524416565895081	-0.091069407761097	0.984356018066406	0.059564380645752	0.240713409423828	-0.172016337513924	0.0864897891879082	-1.66196262836456	-0.82103431224823	-0.585200488567352	-0.250729978084564	0.980474731445312	0.0620179786682129	0.193852432250977	-2.44898915290833	-2.71171140670776	-0.961223006248474	-1.01099157333374	-0.14110754430294	0.332527756690979	0.948266418457031	0.219700897216797	0.242689758300781	-2.01146006584167	-1.05126166343689	-3.23056483268738	-0.917489171028137	-0.592279076576233	0.21875262260437	0.992685119628906	-0.115238006591797	0.0536973190307617	1.31109118461609	2.01126790046692	-0.525929689407349	-0.786124765872955	0.294429451227188	-0.580325663089752	0.951166259765625	-0.159664108276367	0.256343231201172	1.83081710338593	1.48819601535797	-0.262295097112656	-0.625475764274597	-0.0922830253839493	-0.783436834812164	0.995143127441406	0.0503190612792969	0.111859809875488	2.97348356246948	-1.22276830673218	0.788104653358459	-0.92820805311203	0.527825891971588	-0.0175729542970657	0.966387512207031	0.113814964294434	-0.220242904663086	2.17963409423828	1.40369939804077	-0.521561682224274	-0.749991297721863	-0.513178646564484	0.697033226490021	0.982920654296875	0.175733627319336	-0.114750549316406	2.10108232498169	-0.354161471128464	0.782546639442444	-0.924060881137848	-0.656737804412842	-0.602297008037567	-0.517496337890625	-0.230876541137695	0.832934753417969	-0.530444383621216	-0.355674386024475	-0.255835145711899	0.360344350337982	1.21043610572815	-0.766856729984283	0.977493835449219	-0.134775741577148	-0.211873443603516	1.74439668655396	-0.265561074018478	0.262164354324341	-0.892833530902863	0.269041150808334	-0.550295352935791	0.986361511230469	0.0156629686355591	-0.153824020385742	0.173024922609329	0.437353253364563	2.09491038322449	-0.800524592399597	-0.769788026809692	0.608139097690582	-0.495155914306641	0.127402076721191	0.861226135253906	-0.344496935606003	-0.174569875001907	-0.347979038953781	0.204349398612976	0.89574408531189	-1.16160368919373	0.981054260253906	-0.0703767547607422	-0.214398132324219	1.84403038024902	0.698898553848267	-0.789692282676697	-0.866942822933197	0.0664121508598328	1.12891590595245	0.968720458984375	0.182157653808594	-0.175814102172852	0.0843124687671661	-0.961222946643829	-0.869815528392792	-1.11060976982117	0.20091737806797	-0.779051721096039	-0.147931442260742	0.952676696777344	0.28269189453125	-0.69823682308197	1.221231341362	0.0	0.596189558506012	-0.605943441390991	-0.603027880191803
0.970730163574219	-0.10888166809082	-0.226076126098633	-37.6824531555176	6.47112464904785	15.298942565918	-0.896961987018585	0.52588301897049	-0.0898354053497314	0.977523071289062	0.0566385383605957	0.229013946533203	0.0	0.0	-2.79673075675964	-0.824695765972137	-0.581547975540161	-0.237300932407379	0.978534118652344	0.0605347747802734	0.186531860351562	-3.23581314086914	-2.97146892547607	-0.349075734615326	-1.0107364654541	-0.14110754430294	0.332527756690979	0.945811096191406	0.213847778320312	0.239737655639648	-1.575643658638	-1.6590222120285	-3.3185567855835	-0.918949246406555	-0.589851081371307	0.215822130441666	0.99660009765625	-0.111340042114258	0.0571344680786133	0.701281309127808	2.09887290000916	-0.260894238948822	-0.786124765872955	0.294429451227188	-0.57420939207077	0.955058349609375	-0.157714965820312	0.260745269775391	3.05497288703918	0.962690532207489	-0.871496558189392	-0.625475764274597	-0.0922830253839493	-0.783691644668579	0.986330322265625	0.0449451789855957	0.107381607055664	2.53833961486816	-2.27323746681213	0.875250816345215	-0.930661916732788	0.533693909645081	-0.007813960313797	0.980559692382812	0.122569961547852	-0.215809677124023	2.70673513412476	2.44347667694092	-0.963563084602356	-0.749991297721863	-0.513178646564484	0.697254359722137	0.984903076171875	0.180707214355469	-0.124043434143066	2.00973105430603	-0.531242191791534	1.8349369764328	-0.922849059104919	-0.658217787742615	-0.592775642871857	-0.515657958984375	-0.225543319702148	0.8285078125	0.0	-0.271986275911331	0.255835145711899	0.357903450727463	1.20800089836121	-0.762685894966125	0.973168640136719	-0.137167083740234	-0.189899673461914	2.00984835624695	-1.05162179470062	0.433927178382874	-0.890122056007385	0.264161050319672	-0.54492062330246	0.993195983886719	0.0195483570098877	-0.154258544921875	0.0943772345781326	0.0	0.612211287021637	-0.800308048725128	-0.767076194286346	0.606445848941803	-0.489665802001953	0.13226594543457	0.867291076660156	-0.0861242339015007	0.436424672603607	0.263984113931656	0.200670316815376	0.895510315895081	-1.16015779972076	0.979105590820312	-0.074801643371582	-0.213405090332031	1.22935366630554	0.698898553848267	-1.1342853307724	-0.867184817790985	0.0664121508598328	1.12891590595245	0.968235961914062	0.179134948730469	-0.179704162597656	0.529964089393616	-0.522770345211029	-0.869815528392792	-1.10936892032623	0.201171517372131	-0.77344423532486	-0.148411148071289	0.956016845703125	0.28269189453125	-1.13463485240936	1.3098691701889	0.350908815860748	0.596189558506012	-0.605943441390991	-0.603027880191803
0.967327392578125	-0.114742889404297	-0.221692825317383	-37.3324394226074	6.99408197402954	14.6862182617188	-0.897229135036469	0.530282199382782	-0.0847231075167656	0.983408874511719	0.059564380645752	0.234863677978516	0.0	1.04925775527954	-1.8369060754776	-0.823735415935516	-0.584954440593719	-0.235843390226364	0.977046264648437	0.0551801643371582	0.195326049804688	-2.88174247741699	-1.74745976924896	-0.263071566820145	-1.00706911087036	-0.138435184955597	0.332277417182922	0.952660095214844	0.219230560302734	0.234871520996094	-1.83266353607178	-1.6590222120285	-3.3185567855835	-0.91771137714386	-0.59082818031311	0.21875262260437	0.998068237304688	-0.10985173034668	0.0727637557983398	-0.345558911561966	2.88366889953613	-0.786823928356171	-0.788819134235382	0.292970955371857	-0.577144205570221	0.955058349609375	-0.1547705078125	0.255854125976562	2.27497982978821	1.31155550479889	-0.524590194225311	-0.624267876148224	-0.0935164093971252	-0.782239198684692	0.996112548828125	0.0547158737182617	0.105952392578125	3.05809473991394	-2.10093832015991	1.13668942451477	-0.931873738765717	0.532477080821991	-0.0090317204594612	0.971175415039062	0.112842185974121	-0.224144149780273	2.27935576438904	1.1307578086853	-1.48512470722198	-0.749991297721863	-0.516846835613251	0.686031520366669	0.978595397949219	0.172800476074219	-0.123545600891113	1.65955054759979	-0.435891032218933	1.05239033699036	-0.922849059104919	-0.658217787742615	-0.592775642871857	-0.513819580078125	-0.224167007446289	0.824744873046875	-1.04048705101013	-0.355674386024475	-0.614004373550415	0.357903450727463	1.20800089836121	-0.762458920478821	0.981979248046875	-0.128462615966797	-0.202621322631836	2.27530002593994	-0.616101682186127	1.48258459568024	-0.892569005489349	0.265370845794678	-0.560301423072815	0.995148681640625	0.0151772956848145	-0.148935546875	-0.346049845218658	-0.0850409120321274	1.22442257404327	-0.80272102355957	-0.769788026809692	0.603756606578827	-0.494110168457031	0.124577896118164	0.86238134765625	-0.442924648523331	0.261854827404022	-0.0839949399232864	0.201920494437218	0.894282937049866	-1.1589343547821	0.972176940917969	-0.0815443267822266	-0.206056564331055	1.570840716362	0.614548742771149	-1.22043359279633	-0.864734530448914	0.063962385058403	1.12330532073975	0.974049743652344	0.188521240234375	-0.185539276123047	1.0478835105896	-0.438452571630478	-0.518837332725525	-1.10936892032623	0.20091737806797	-0.77344423532486	-0.147451721191406	0.955039245605469	0.281749938964844	-0.960075616836548	0.433340162038803	0.350908815860748	0.597399830818176	-0.605943441390991	-0.601570665836334
0.958536926269531	-0.121573104858398	-0.220705581665039	-36.8107261657715	5.94440507888794	14.9494981765747	-0.897466599941254	0.534660816192627	-0.0795931816101074	0.978537841796875	0.0590767402648926	0.235342483520508	0.521980583667755	0.523490846157074	-1.8369060754776	-0.822745025157928	-0.588379919528961	-0.234369471669197	0.986814147949219	0.0673725891113281	0.18748258972168	-2.44898915290833	-2.36143207550049	-0.698151469230652	-1.00343370437622	-0.135746315121651	0.332027077674866	0.940900451660156	0.212384506225586	0.232925079345703	-1.48624539375305	-1.31407701969147	-3.58253288269043	-0.916505217552185	-0.591805279254913	0.221683114767075	0.988770202636719	-0.114741905212402	0.0536973190307617	0.0	2.27408313751221	0.0869647487998009	-0.791513502597809	0.291500777006149	-0.580079019069672	0.958034729003906	-0.157217315673828	0.264658203125	2.96830701828003	1.13491499423981	-0.702273905277252	-0.623059988021851	-0.0947277620434761	-0.780761241912842	0.990736755371094	0.0468993186950684	0.116719139099121	3.32401609420776	-2.53446507453918	1.57242035865784	-0.933115839958191	0.531240701675415	-0.0102494806051254	0.974622680664063	0.122083572387695	-0.217316970825195	2.27935576438904	1.75462424755096	-0.433161377906799	-0.749991297721863	-0.520514965057373	0.6748086810112	0.9780546875	0.168974639892578	-0.115248382568359	1.91837954521179	0.08172956854105	0.782546639442444	-0.922849059104919	-0.658217787742615	-0.592775642871857	-0.512287658691406	-0.226059448242187	0.830499938964844	-1.40771782398224	-0.167376175522804	-0.255835145711899	0.357903450727463	1.20800089836121	-0.762203574180603	0.977974426269531	-0.134775741577148	-0.18608317565918	1.05232620239258	-0.701081216335297	0.876894533634186	-0.895015954971313	0.266601115465164	-0.575682163238525	0.99417236328125	0.0171199893951416	-0.158712493896484	0.173024922609329	0.0	1.0522381067276	-0.805164933204651	-0.772472262382507	0.601067304611206	-0.487312896728516	0.134305633544922	0.866135864257813	0.873545825481415	-0.523709654808044	0.0	0.203134953975677	0.893055617809296	-1.15771079063416	0.978455993652344	-0.0703767547607422	-0.212412048339844	1.22935366630554	1.0483478307724	-1.66553282737732	-0.862314522266388	0.0615126229822636	1.11765909194946	0.969689392089844	0.185975799560547	-0.180211563110352	0.43360698223114	-0.522770345211029	-1.48021245002747	-1.10936892032623	0.20069146156311	-0.77344423532486	-0.148411148071289	0.955528076171875	0.286112762451172	-2.35654926300049	1.48714470863342	0.0892141088843346	0.598635792732239	-0.605943441390991	-0.600094497203827
0.963357482910156	-0.114246574401855	-0.223153930664062	-36.8965759277344	5.94440507888794	14.9494981765747	-0.894052982330322	0.531727969646454	-0.0844763070344925	0.986317993164063	0.0693352508544922	0.239755813598633	-0.699928522109985	0.6987464427948	-1.92437779903412	-0.820314049720764	-0.585938572883606	-0.247798517346382	0.976593444824219	0.0624956207275391	0.186056503295898	-2.09491848945618	-1.13742315769196	-0.177067399024963	-1.00464558601379	-0.138435184955597	0.332027077674866	0.954598510742187	0.224142990112305	0.236331359863281	-0.961030840873718	-1.74662733078003	-3.14257264137268	-0.916251301765442	-0.592279076576233	0.221927314996719	0.997089477539063	-0.10985173034668	0.0693266143798828	-0.609809815883636	2.18647813796997	0.260894238948822	-0.786364257335663	0.290532350540161	-0.578623950481415	0.952654418945313	-0.150872222900391	0.256343231201172	2.44831156730652	1.22323524951935	-1.31147539615631	-0.625475764274597	-0.0935164093971252	-0.783436834812164	0.993204345703125	0.0532502670288086	0.111288124084473	3.67454862594604	-2.44553661346436	0.700958430767059	-0.92820805311203	0.532477080821991	-0.0105031803250313	0.970792419433594	0.121597183227539	-0.215366348266602	2.45030760765076	1.05277454853058	-0.521561682224274	-0.749991297721863	-0.520514965057373	0.686031520366669	0.98382177734375	0.176753845214844	-0.113257049560547	1.75090193748474	0.0	0.782546639442444	-0.926771461963654	-0.658217787742615	-0.596681177616119	-0.51718994140625	-0.227951873779297	0.824744873046875	-0.61205118894577	0.0	-0.170556768774986	0.362785220146179	1.20823276042938	-0.757068157196045	0.97220751953125	-0.137167083740234	-0.194872680664062	2.44594764709473	-0.786060750484467	0.786493062973022	-0.893792450428009	0.267831385135651	-0.565923869609833	0.992219604492187	0.0146916217803955	-0.153280853271484	0.0	0.0	0.5261190533638	-0.805164933204651	-0.772223234176636	0.601067304611206	-0.490711547851563	0.133834945678711	0.865269470214844	-0.0861242339015007	0.698279500007629	0.0	0.203134953975677	0.893055617809296	-1.15771079063416	0.977589965820313	-0.0718517227172852	-0.204567001342773	1.22935366630554	1.13872265815735	-1.57938456535339	-0.860832273960114	0.0615126229822636	1.10938513278961	0.9745341796875	0.191384857177734	-0.172854263305664	1.22855305671692	-0.961222946643829	-0.793515920639038	-1.11060976982117	0.20069146156311	-0.77344423532486	-0.146972015380859	0.957483276367188	0.291020965576172	-2.53110837936401	2.3636736869812	0.440122932195663	0.597399830818176	-0.607180774211884	-0.600094497203827
0.962412292480469	-0.12646533203125	-0.218257247924805	-36.1106986999512	5.8578724861145	13.8150024414062	-0.890639305114746	0.528815805912018	-0.0893594324588776	0.981920532226563	0.0654341278076172	0.243648696899414	0.699928522109985	1.13574755191803	-2.01184940338135	-0.8178830742836	-0.583497226238251	-0.261227548122406	0.978986877441406	0.0605347747802734	0.18748258972168	-1.57364773750305	-2.44801807403564	0.0	-1.00585734844208	-0.14110754430294	0.332027077674866	0.947297180175781	0.214840728759766	0.238277816772461	-0.871632635593414	-1.83423244953156	-3.14257264137268	-0.916029155254364	-0.592782437801361	0.222171530127525	0.997578857421875	-0.113289024353027	0.0624847450256348	-0.345558911561966	2.09887290000916	0.0869647487998009	-0.781244993209839	0.289552241563797	-0.577144205570221	0.950708374023438	-0.161613265991211	0.262212615966797	2.27497982978821	1.5721001625061	-0.96456903219223	-0.627920985221863	-0.0922830253839493	-0.786137878894806	0.992675537109375	0.0532502670288086	0.10547599029541	2.97348356246948	-1.75078189373016	1.04954314231873	-0.923330545425415	0.533693909645081	-0.0107399672269821	0.980559692382812	0.12792024230957	-0.220686218261719	2.70673513412476	1.05277454853058	-1.1403636932373	-0.749991297721863	-0.520514965057373	0.697254359722137	0.978595397949219	0.173310592651367	-0.126947463989258	2.54261422157288	-0.177080735564232	1.22329127788544	-0.930661976337433	-0.658217787742615	-0.600586712360382	-0.511674865722656	-0.226575561523437	0.832934753417969	0.183615356683731	-0.439362466335297	-0.255835145711899	0.367666989564896	1.20850336551666	-0.751961052417755	0.973168640136719	-0.140610610961914	-0.192328353881836	1.92452454566956	-0.169959083199501	0.786493062973022	-0.892569005489349	0.269041150808334	-0.556146502494812	0.992219604492187	0.0127489280700684	-0.156213943481445	0.786476969718933	0.0	0.784395694732666	-0.805164933204651	-0.771974146366119	0.601067304611206	-0.492803009033203	0.130853851318359	0.861803771972656	0.0	0.0872849375009537	-0.179989159107208	0.203134953975677	0.893055617809296	-1.15771079063416	0.969145629882812	-0.0741695175170898	-0.21191552734375	0.956163942813873	0.43982407450676	-1.30658185482025	-0.85938024520874	0.0615126229822636	1.10107564926147	0.968235961914062	0.189475784301758	-0.189006500244141	0.782901525497437	-0.261385172605515	-0.961375057697296	-1.11181616783142	0.20069146156311	-0.77344423532486	-0.147931442260742	0.953572814941406	0.273420867919922	-2.00743079185486	0.876528978347778	-0.0892141088843346	0.596189558506012	-0.608388662338257	-0.600094497203827
0.957497192382813	-0.12989225769043	-0.215335052490234	-36.0248489379883	5.8578724861145	13.3793935775757	-0.893310844898224	0.53197580575943	-0.0869090557098389	0.983882446289063	0.0639712066650391	0.241691833496094	0.0889739617705345	1.22451341152191	-2.01184940338135	-0.817613005638123	-0.583743274211884	-0.261227548122406	0.974135314941406	0.0590767135620117	0.190429824829102	-1.39661228656769	-1.39718067646027	-1.13829040527344	-1.00585734844208	-0.139655888080597	0.329340010881424	0.9467802734375	0.221216445922852	0.239251037597656	-1.13982725143433	-0.700841069221497	-2.27522253990173	-0.912347257137299	-0.59251594543457	0.223392561078072	0.987791442871094	-0.117186988830566	0.052238151550293	0.0	2.18647813796997	-0.173929497599602	-0.781244993209839	0.289552241563797	-0.577390849590302	0.955573486328125	-0.16260856628418	0.266591369628906	2.70830941200256	0.697729825973511	-1.31147539615631	-0.62671309709549	-0.0935164093971252	-0.7846599817276	0.991706176757812	0.0517846641540527	0.107381607055664	3.32401609420776	-2.36216592788696	1.31098175048828	-0.923330545425415	0.533929407596588	-0.0107399672269821	0.96926025390625	0.125001907348633	-0.226094772338867	2.53578329086304	1.92358803749084	-0.176800563931465	-0.749991297721863	-0.520514965057373	0.697254359722137	0.976072265625	0.172417892456055	-0.131842819213867	2.54261422157288	-0.435891032218933	1.13334333896637	-0.930406868457794	-0.656968057155609	-0.602041721343994	-0.5141259765625	-0.227951873779297	0.831606689453125	-0.346829026937485	-0.878724932670593	-0.0852783843874931	0.366446554660797	1.20946979522705	-0.761465907096863	0.970765747070312	-0.133819213867188	-0.196723098754883	1.92452454566956	0.169959083199501	1.13905882835388	-0.892569005489349	0.269041150808334	-0.556146502494812	0.982944274902344	0.0122632551193237	-0.153280853271484	0.267402172088623	0.60743510723114	1.13833034038544	-0.805659890174866	-0.769289970397949	0.602063357830048	-0.494633056640625	0.134305633544922	0.857471618652344	1.13191854953766	0.349139750003815	0.0	0.201920494437218	0.891857504844666	-1.16575610637665	0.975641235351563	-0.066373291015625	-0.213405090332031	1.570840716362	0.873623192310333	-0.875840544700623	-0.861830532550812	0.0627542808651924	1.11499583721161	0.967266967773437	0.194884826660156	-0.18799169921875	0.349294513463974	-0.345702975988388	-1.05293464660645	-1.11546969413757	0.20069146156311	-0.773206889629364	-0.140615814208984	0.962371276855469	0.273916656494141	-2.18199014663696	1.83184707164764	0.0	0.596189558506012	-0.607180774211884	-0.601570665836334
0.961939697265625	-0.124031036376953	-0.217783386230469	-36.4607124328613	5.42144775390625	12.9389991760254	-0.895982444286346	0.535156488418579	-0.0844763070344925	0.973599182128906	0.0605396614074707	0.22851432800293	0.438938230276108	0.962767958641052	-2.18679285049438	-0.817372858524323	-0.583989262580872	-0.261227548122406	0.976075927734375	0.0639536819458008	0.184059982299805	-0.786823868751526	-1.74745976924896	-1.92244601249695	-1.00585734844208	-0.138187736272812	0.326652944087982	0.944841857910156	0.220223495483398	0.238764419555664	-1.30744898319244	-1.57141709327698	-2.71518278121948	-0.908697068691254	-0.592279076576233	0.224613606929779	0.987791442871094	-0.115734115600586	0.0654355010986328	-0.874060750007629	2.7960638999939	1.13468289375305	-0.781244993209839	0.289552241563797	-0.577637434005737	0.950193237304688	-0.159166458129883	0.261234405517578	3.15247201919556	0.697729825973511	-2.01374936103821	-0.625475764274597	-0.0947277620434761	-0.783207476139069	0.992675537109375	0.0522731971740723	0.103475090026855	3.84981489181519	-2.0120096206665	1.22383558750153	-0.923330545425415	0.534184515476227	-0.0107399672269821	0.978070007324219	0.126461074829102	-0.209957809448242	2.6212592124939	2.3654932975769	-0.433161377906799	-0.749991297721863	-0.520514965057373	0.697254359722137	0.979496459960937	0.180707214355469	-0.109855194091797	1.84225332736969	0.967133224010468	1.48414015769958	-0.93018364906311	-0.655751168727875	-0.603522300720215	-0.51718994140625	-0.227607803344727	0.824744873046875	-0.795666575431824	-0.60673862695694	-0.784561157226562	0.365226119756699	1.21043610572815	-0.770999133586884	0.9746103515625	-0.132767028808594	-0.197301361083984	2.18997621536255	-0.701081216335297	1.57298612594604	-0.892569005489349	0.269041150808334	-0.556146502494812	0.993684143066406	0.0180913372039795	-0.157734802246094	0.692099690437317	0.0	1.39660704135895	-0.806154906749725	-0.766605734825134	0.603026151657104	-0.496985961914063	0.127872772216797	0.86238134765625	-0.258372694253922	0.436424672603607	-0.527968227863312	0.200670316815376	0.890630185604095	-1.17383849620819	0.981920349121094	-0.066373291015625	-0.213405090332031	1.22935366630554	0.698898553848267	-1.57938456535339	-0.864250540733337	0.063962385058403	1.12891590595245	0.967266967773437	0.189953048706055	-0.177251739501953	-0.264982044696808	-0.784155547618866	-1.48021245002747	-1.11915767192841	0.20069146156311	-0.77293986082077	-0.150869674682617	0.956016845703125	0.284179229736328	-2.96750640869141	1.3098691701889	-0.350908815860748	0.596189558506012	-0.605943441390991	-0.603027880191803
0.960899963378906	-0.128899627685547	-0.222640563964844	-35.4965286254883	5.42144775390625	12.8528347015381	-0.895507454872131	0.536375045776367	-0.0832599326968193	0.974140380859375	0.0590767402648926	0.242670272827148	0.349964261054993	1.74800419807434	-2.09932112693787	-0.821274399757385	-0.585200488567352	-0.246340975165367	0.984356018066406	0.0707914962768555	0.194803161621094	-1.14089453220367	-1.57428812980652	-0.961223006248474	-1.00585734844208	-0.138435184955597	0.326652944087982	0.95169091796875	0.225083679199219	0.243662994384766	-0.704010963439941	-0.876051306724548	-3.05458068847656	-0.906253099441528	-0.594736635684967	0.222904145717621	0.994153259277344	-0.111800712585449	0.0624847450256348	0.172779455780983	1.9236626625061	0.699859142303467	-0.786364257335663	0.293215990066528	-0.581780731678009	0.956546508789063	-0.158212615966797	0.269526062011719	2.88164114952087	1.39987576007843	-1.65838181972504	-0.625475764274597	-0.0949700325727463	-0.783436834812164	0.997522583007812	0.0561814765930176	0.113765434265137	3.58389377593994	-2.53446507453918	1.48527407646179	-0.926996231079102	0.532712638378143	-0.0119577273726463	0.974048156738281	0.122569961547852	-0.216784973144531	2.17963409423828	1.1307578086853	-0.786762535572052	-0.748775243759155	-0.518076717853546	0.6984983086586	0.975531616210938	0.17037744140625	-0.12454126739502	3.15162348747253	-0.08172956854105	1.22329127788544	-0.927728176116943	-0.655751168727875	-0.592775642871857	-0.5141259765625	-0.230876541137695	0.8285078125	-0.693658053874969	-0.690426707267761	-0.255835145711899	0.361564785242081	1.21167302131653	-0.768076717853546	0.9746103515625	-0.131810485839844	-0.194294418334961	3.06217455863953	-1.05162179470062	0.786493062973022	-0.896470904350281	0.269041150808334	-0.551762878894806	0.989778747558594	0.0156629686355591	-0.14795783996582	1.39992892742157	-0.170081824064255	0.784395694732666	-0.8037109375	-0.765388131141663	0.605715453624725	-0.485221435546875	0.139169509887695	0.862670166015625	0.344496935606003	0.610994577407837	0.431973993778229	0.200670316815376	0.895510315895081	-1.16431021690369	0.97802294921875	-0.0733266830444336	-0.211419006347656	1.570840716362	0.614548742771149	-2.09627413749695	-0.864492535591125	0.063962385058403	1.12891590595245	0.970173889160156	0.192816665649414	-0.178181976318359	1.0478835105896	-0.345702975988388	-0.961375057697296	-1.11426329612732	0.199703112244606	-0.777330875396729	-0.149430541992187	0.958949645996094	0.281749938964844	-3.5784637928009	2.18639802932739	0.701817631721497	0.596447050571442	-0.605943441390991	-0.603027880191803
0.965815063476563	-0.130861251831055	-0.21727001953125	-34.532341003418	5.24462080001831	12.1539468765259	-0.895032525062561	0.537593603134155	-0.0820259302854538	0.975561096191406	0.0634835662841797	0.223643020629883	0.788902461528778	0.787512302398682	-2.62178730964661	-0.825205981731415	-0.586430609226227	-0.231438010931015	0.974135314941406	0.0649341049194336	0.184582885742188	-0.354070723056793	-0.873729884624481	-0.698151469230652	-1.00585734844208	-0.138666123151779	0.326652944087982	0.944324951171875	0.216774337768555	0.236817977905273	-0.704010963439941	-1.22647190093994	-2.71518278121948	-0.903809070587158	-0.597164630889893	0.221194699406624	0.993663879394531	-0.115238006591797	0.0551889114379883	-0.437030375003815	2.36168837547302	0.612894415855408	-0.791513502597809	0.296879708766937	-0.585948586463928	0.960438659667969	-0.152323715209961	0.263190856933594	2.96830701828003	0.962690532207489	-1.22686409950256	-0.625475764274597	-0.0952123031020164	-0.783691644668579	0.995583801269531	0.058135612487793	0.102998687744141	4.01903772354126	-2.62339377403259	1.13668942451477	-0.930661916732788	0.531240701675415	-0.0131754875183105	0.972707580566406	0.121597183227539	-0.217316970825195	2.53578329086304	1.57266318798065	-0.0884002819657326	-0.747559189796448	-0.515616893768311	0.699714541435242	0.979496459960937	0.169867324829102	-0.121056434631348	2.35991144180298	0.435891032218933	1.40318703651428	-0.925304591655731	-0.655751168727875	-0.582028985023499	-0.509223724365234	-0.226059448242187	0.834926940917969	-0.0816068276762962	0.0	0.0	0.357903450727463	1.21287131309509	-0.76512598991394	0.973168640136719	-0.127410430908203	-0.201117858886719	2.71139907836914	-0.786060750484467	0.614730179309845	-0.900405824184418	0.269041150808334	-0.547360241413116	0.989778747558594	0.0151772956848145	-0.154258544921875	1.39992892742157	0.170081824064255	0.870487928390503	-0.801267027854919	-0.764170587062836	0.608404695987701	-0.497508819580078	0.12646068572998	0.861803771972656	-0.344496935606003	-0.0872849375009537	0.0	0.200670316815376	0.900390386581421	-1.15478193759918	0.97499169921875	-0.0762766036987305	-0.212412048339844	1.40009713172913	-0.174724638462067	-2.18242239952087	-0.864734530448914	0.063962385058403	1.12891590595245	0.966298034667969	0.191862121582031	-0.173869064331055	1.13219594955444	-0.522770345211029	-0.350978195667267	-1.10936892032623	0.198743000626564	-0.781751573085785	-0.148411148071289	0.95992724609375	0.285666564941406	-2.88022685050964	2.5311005115509	0.261694699525833	0.596678793430328	-0.605943441390991	-0.603027880191803
0.961467102050781	-0.134288177490234	-0.224101669311523	-34.796501159668	5.24462080001831	11.9768314361572	-0.895269989967346	0.538564324378967	-0.0822727307677269	0.975087524414063	0.0600520210266113	0.228035522460938	0.960918843746185	0.962767958641052	-2.09932112693787	-0.826406478881836	-0.585200488567352	-0.235843390226364	0.978534118652344	0.0668949508666992	0.183109268188477	-0.0885176807641983	-0.436864942312241	-0.789214670658112	-1.00706911087036	-0.13988684117794	0.333746135234833	0.946263366699219	0.217767288208008	0.232925079345703	-0.435816317796707	-1.13886678218842	-2.27522253990173	-0.910157144069672	-0.599622189998627	0.221438899636269	0.987302062988281	-0.119135971069336	0.061025577545166	-0.437030375003815	1.66084730625153	-0.0869647487998009	-0.787591695785522	0.290532350540161	-0.584715485572815	0.9531123046875	-0.156719665527344	0.259767059326172	2.36164569854736	1.22323524951935	-2.01374936103821	-0.621586978435516	-0.0986261144280434	-0.779538154602051	0.996112548828125	0.0547158737182617	0.10547599029541	3.84981489181519	-2.44553661346436	1.04954314231873	-0.930661916732788	0.533693909645081	-0.0105031803250313	0.973090576171875	0.122569961547852	-0.214391036987305	2.53578329086304	1.83260750770569	-0.963563084602356	-0.751207411289215	-0.518076717853546	0.69285923242569	0.986885498046875	0.174330810546875	-0.117654579162598	2.71009182929993	-0.354161471128464	1.22329127788544	-0.925304591655731	-0.655751168727875	-0.581799268722534	-0.517496337890625	-0.230876541137695	0.827622436523437	-0.693658053874969	-0.0836880877614021	-0.44344761967659	0.357903450727463	1.21287131309509	-0.76512598991394	0.968202697753906	-0.134297485351562	-0.201117858886719	3.23282217979431	-1.57212150096893	0.524328708648682	-0.900141298770905	0.267585337162018	-0.561273396015167	0.990755126953125	0.0132346019744873	-0.158169326782227	0.613452017307281	0.437353253364563	0.5261190533638	-0.802257001399994	-0.761707723140717	0.609865546226501	-0.492280151367188	0.12646068572998	0.866713500976563	0.52904886007309	0.349139750003815	0.347979038953781	0.203134953975677	0.900390386581421	-1.15626490116119	0.979105590820312	-0.0741695175170898	-0.217774490356445	1.65621256828308	0.698898553848267	-1.75168108940125	-0.864734530448914	0.0641972944140434	1.14109599590302	0.971142822265625	0.195839370727539	-0.177759140014648	0.614276528358459	-0.522770345211029	-0.793515920639038	-1.10936892032623	0.198488861322403	-0.781751573085785	-0.148950836181641	0.961882507324219	0.276841735839844	-3.14206576347351	2.5311005115509	0.0	0.596447050571442	-0.605943441390991	-0.604239106178284
0.973187683105469	-0.12303840637207	-0.214861175537109	-34.6247978210449	5.15808820724487	12.3262748718262	-0.895507454872131	0.539555728435516	-0.08251953125	0.969742919921875	0.0566385383605957	0.228035522460938	1.13886678218842	1.3110032081604	-1.8369060754776	-0.827636957168579	-0.583989262580872	-0.240232393145561	0.983903198242188	0.0649341049194336	0.183584625244141	0.265553057193756	-0.960315763950348	-0.789214670658112	-1.00831282138824	-0.14110754430294	0.340822607278824	0.946263366699219	0.219230560302734	0.240710876464844	-0.871632635593414	-0.525630831718445	-2.18723058700562	-0.916505217552185	-0.602050185203552	0.221683114767075	0.994153259277344	-0.113785133361816	0.054702522277832	-0.965532243251801	3.05887913703918	0.260894238948822	-0.783699870109558	0.284184962511063	-0.583507061004639	0.952654418945313	-0.159166458129883	0.267080505371094	2.27497982978821	1.31155550479889	-1.92067694664001	-0.617668747901917	-0.10203992575407	-0.775384604930878	1.00051898193359	0.0576470794677734	0.111288124084473	3.4992823600769	-3.32370662689209	1.39812791347504	-0.930661916732788	0.53612744808197	-0.007813960313797	0.975580261230469	0.125488296508789	-0.211908432006836	2.17963409423828	1.57266318798065	0.265200853347778	-0.754884541034698	-0.520514965057373	0.686031520366669	0.98976904296875	0.177774063110352	-0.105457664489746	2.71009182929993	0.531242191791534	0.521697759628296	-0.925304591655731	-0.655751168727875	-0.581543982028961	-0.510755676269531	-0.227951873779297	0.829614562988281	-0.61205118894577	-0.878724932670593	-0.95511794090271	0.357903450727463	1.21287131309509	-0.76512598991394	0.970285217285156	-0.133819213867188	-0.198689178466797	3.23282217979431	-1.57212150096893	1.04865741729736	-0.899909794330597	0.266108989715576	-0.575186610221863	0.989778747558594	0.0151772956848145	-0.156757095336914	0.613452017307281	0.170081824064255	1.39660704135895	-0.803215980529785	-0.759272575378418	0.611326396465302	-0.487312896728516	0.13273664855957	0.865269470214844	0.258372694253922	0.349139750003815	-0.179989159107208	0.205563858151436	0.900390386581421	-1.15771079063416	0.974558654785156	-0.0726945571899414	-0.212908569335937	2.10014581680298	0.698898553848267	-1.1342853307724	-0.864734530448914	0.064465768635273	1.15331172943115	0.969204895019531	0.191384857177734	-0.180211563110352	0.963571071624756	-0.699837744235992	0.0	-1.10936892032623	0.198234707117081	-0.781751573085785	-0.1518291015625	0.956016845703125	0.284675018310547	-3.22934532165527	2.2750358581543	0.523389399051666	0.596189558506012	-0.605943441390991	-0.605469226837158
0.965815063476563	-0.128899627685547	-0.223627792358398	-33.9247741699219	4.98502349853516	12.1539468765259	-0.891856372356415	0.540278613567352	-0.0832599326968193	0.968728088378906	0.0581014595031738	0.245605545043945	0.260990291833878	0.787512302398682	-2.09932112693787	-0.826406478881836	-0.588625907897949	-0.240232393145561	0.981962524414063	0.067875373840332	0.188956207275391	0.265553057193756	-1.05083727836609	-0.789214670658112	-1.00706911087036	-0.139655888080597	0.340822607278824	0.946263366699219	0.220223495483398	0.233898300170898	-0.78223443031311	-0.876051306724548	-2.0992386341095	-0.916251301765442	-0.60228705406189	0.221683114767075	0.991217041015625	-0.116194778442383	0.0649491119384766	-1.13831162452698	2.7960638999939	0.87378865480423	-0.786364257335663	0.28783705830574	-0.580079019069672	0.951681396484375	-0.151867523193359	0.268058715820312	2.01498222351074	1.48819601535797	-2.01374936103821	-0.617668747901917	-0.100828573107719	-0.781016051769257	0.992675537109375	0.0527617340087891	0.10795329284668	3.58389377593994	-3.58493423461914	1.57242035865784	-0.92820805311203	0.53002393245697	-0.007813960313797	0.974048156738281	0.125974685668945	-0.208007186889648	2.17963409423828	1.92358803749084	-0.786762535572052	-0.749759674072266	-0.518076717853546	0.68871283531189	0.98580419921875	0.176753845214844	-0.11964591217041	1.84225332736969	-0.08172956854105	1.48414015769958	-0.926516354084015	-0.656737804412842	-0.600841999053955	-0.511674865722656	-0.225543319702148	0.836476379394531	-1.65253829956055	-0.167376175522804	-0.358169227838516	0.357903450727463	1.21287131309509	-0.766601324081421	0.968202697753906	-0.129419143676758	-0.208982162475586	2.88204669952393	-1.40216243267059	0.876894533634186	-0.895015954971313	0.265145301818848	-0.56983095407486	0.98489697265625	0.0082564487457275	-0.152846328735352	0.0943772345781326	-0.267271429300308	0.612211287021637	-0.803463459014893	-0.759023547172546	0.611326396465302	-0.496985961914063	0.129441772460937	0.861226135253906	0.0	0.0	-0.347979038953781	0.205563858151436	0.900390386581421	-1.15771079063416	0.977589965820313	-0.0667947082519531	-0.209432922363281	1.40009713172913	0.873623192310333	-2.09627413749695	-0.8620725274086	0.0617810897529125	1.12330532073975	0.968235961914062	0.188521240234375	-0.181141799926758	0.0843124687671661	-0.876905143260956	-0.793515920639038	-1.10936892032623	0.199703112244606	-0.779051721096039	-0.156266448974609	0.953572814941406	0.285666564941406	-4.10214138031006	3.06292724609375	0.261694699525833	0.594979345798492	-0.603527665138245	-0.605469226837158
0.960899963378906	-0.132822875976563	-0.220231719970703	-33.4889106750488	5.07155561447144	11.8045024871826	-0.888175547122955	0.541022121906281	-0.0839827060699463	0.976102355957031	0.059564380645752	0.231449600219727	0.521980583667755	0.523490846157074	-2.62178730964661	-0.825205981731415	-0.593262553215027	-0.240232393145561	0.981445068359375	0.0673725891113281	0.193852432250977	0.43275311589241	-1.39718067646027	-1.75043773651123	-1.00585734844208	-0.138187736272812	0.340822607278824	0.95169091796875	0.223150054931641	0.240710876464844	-0.17879644036293	-0.876051306724548	-2.0992386341095	-0.916029155254364	-0.60255354642868	0.221683114767075	0.994642639160156	-0.117186988830566	0.0605391883850098	-0.782589256763458	2.53689861297607	0.173929497599602	-0.78905862569809	0.291500777006149	-0.576650977134705	0.9531123046875	-0.156263473510742	0.259767059326172	1.3108217716217	0.874370336532593	-2.01374936103821	-0.617668747901917	-0.0996172204613686	-0.786622047424316	0.998051391601563	0.0527617340087891	0.108906105041504	3.40862727165222	-2.53446507453918	1.92479395866394	-0.925784468650818	0.52392041683197	-0.007813960313797	0.973090576171875	0.11819246673584	-0.212440414428711	1.92320644855499	0.701849699020386	-1.05196332931519	-0.744634866714478	-0.515616893768311	0.691394150257111	0.98201953125	0.17037744140625	-0.122549934387207	2.45126271247864	0.0	0.782546639442444	-0.927728176116943	-0.657724440097809	-0.620114505290985	-0.510142913818359	-0.231908782958984	0.8285078125	-0.958880245685577	-0.523050546646118	-0.95511794090271	0.357903450727463	1.21287131309509	-0.768076717853546	0.978935546875	-0.125975624084473	-0.199730041503906	3.14749836921692	-1.30656039714813	0.958255887031555	-0.890122056007385	0.264161050319672	-0.564456284046173	0.996613220214844	0.0190626831054687	-0.151325469970703	0.346049845218658	0.0	1.31051480770111	-0.8037109375	-0.758802175521851	0.611326396465302	-0.494110168457031	0.129912460327148	0.864114196777344	-0.344496935606003	0.698279500007629	-0.0839949399232864	0.205563858151436	0.900390386581421	-1.15771079063416	0.984302062988281	-0.0648983306884766	-0.217774490356445	2.10014581680298	0.614548742771149	-2.01012587547302	-0.85938024520874	0.0590964145958424	1.09326338768005	0.972596252441406	0.195362091064453	-0.18359423828125	0.782901525497437	-0.784155547618866	-0.793515920639038	-1.10936892032623	0.201171517372131	-0.776381492614746	-0.150869674682617	0.955528076171875	0.286112762451172	-3.4039044380188	2.61973834037781	0.440122932195663	0.593743324279785	-0.601082444190979	-0.605469226837158
0.961939697265625	-0.132326553344727	-0.225088897705078	-32.2605667114258	4.98502349853516	11.3641080856323	-0.88770055770874	0.542240679264069	-0.0827663317322731	0.986791564941406	0.0659217681884766	0.234863677978516	0.610954582691193	0.87400209903717	-2.09932112693787	-0.825205981731415	-0.59350860118866	-0.240232393145561	0.982932861328125	0.0703138580322266	0.190429824829102	0.0	-1.39718067646027	-0.612147271633148	-1.00977969169617	-0.139655888080597	0.339604258537292	0.955567687988281	0.228010238647461	0.243662994384766	-0.704010963439941	-0.700841069221497	-1.39530229568481	-0.912347257137299	-0.599859118461609	0.221683114767075	0.988770202636719	-0.121084953308105	0.0532109298706055	-1.74812150001526	2.44929337501526	1.22578883171082	-0.788819134235382	0.291745811700821	-0.576897621154785	0.957519592285156	-0.1547705078125	0.265636444091797	2.88164114952087	0.697729825973511	-2.36065578460693	-0.620349645614624	-0.0983838438987732	-0.783691644668579	0.999549560546875	0.0547158737182617	0.104999588012695	2.62295079231262	-2.27323746681213	1.22383558750153	-0.925784468650818	0.524175524711609	-0.007813960313797	0.96926025390625	0.119651634216309	-0.20552458190918	1.56705713272095	1.1307578086853	-0.433161377906799	-0.744866490364075	-0.515616893768311	0.691394150257111	0.980397583007813	0.174840927124023	-0.117156745910645	2.19243383407593	0.08172956854105	1.8349369764328	-0.927728176116943	-0.655520975589752	-0.604977309703827	-0.517496337890625	-0.231392654418945	0.828065124511719	-0.958880245685577	-0.355674386024475	-1.05745196342468	0.360344350337982	1.20800089836121	-0.768076717853546	0.975090942382812	-0.120619033813477	-0.199267440795898	2.62607550621033	-1.6571010351181	1.2204202413559	-0.890122056007385	0.264161050319672	-0.564456284046173	0.988314208984375	0.0122632551193237	-0.153280853271484	-0.0943772345781326	-0.267271429300308	0.612211287021637	-0.799813032150269	-0.762454867362976	0.609865546226501	-0.492803009033203	0.135717727661133	0.866713500976563	0.442924648523331	0.436424672603607	0.263984113931656	0.205563858151436	0.897935688495636	-1.15919387340546	0.977589965820313	-0.0619484024047852	-0.210922485351562	1.48546898365021	1.83762121200562	-1.83782935142517	-0.861830532550812	0.060304518789053	1.11108958721161	0.966298034667969	0.194407562255859	-0.189936737060547	0.349294513463974	-0.438452571630478	-1.05293464660645	-1.11060976982117	0.199703112244606	-0.777597904205322	-0.153807922363281	0.952676696777344	0.289533630371094	-3.49118423461914	2.5311005115509	0.0	0.59886759519577	-0.601082444190979	-0.601570665836334
0.960427368164062	-0.13183024597168	-0.21727001953125	-32.2605667114258	4.98502349853516	11.3641080856323	-0.887195944786072	0.543459236621857	-0.0815499573945999	0.975561096191406	0.0600520210266113	0.221186553955078	0.960918843746185	1.92325985431671	-1.66196262836456	-0.825205981731415	-0.593754589557648	-0.240232393145561	0.982415344238281	0.0668949508666992	0.191428085327148	0.786823868751526	-1.83798134326935	-1.83644187450409	-1.01367020606995	-0.14110754430294	0.338385879993439	0.949687866210937	0.21337744140625	0.238764419555664	-0.17879644036293	-0.700841069221497	-1.92325448989868	-0.908697068691254	-0.597164630889893	0.221683114767075	0.988280822753906	-0.12012818145752	0.0727637557983398	-2.0936803817749	3.4969048500061	0.960753381252289	-0.788579642772675	0.291990846395493	-0.577144205570221	0.956031433105469	-0.155765823364258	0.260745269775391	2.53497743606567	1.13491499423981	-3.06292963027954	-0.623059988021851	-0.0971724912524223	-0.780761241912842	0.998051391601563	0.0576470794677734	0.104523178100586	3.05809473991394	-3.23477792739868	1.48527407646179	-0.925784468650818	0.524411082267761	-0.007813960313797	0.979027587890625	0.128893020629883	-0.211465103149414	1.39610540866852	0.961794018745422	0.176800563931465	-0.745127081871033	-0.515616893768311	0.691394150257111	0.978595397949219	0.1782841796875	-0.115746215820312	1.14189255237579	0.531242191791534	1.40318703651428	-0.927728176116943	-0.653317451477051	-0.589840114116669	-0.51473876953125	-0.233457122802734	0.834484191894531	-0.183615356683731	-0.271986275911331	-0.358169227838516	0.362785220146179	1.20313036441803	-0.768076717853546	0.975571533203125	-0.125975624084473	-0.195797897338867	3.23282217979431	-2.18822312355042	0.524328708648682	-0.890122056007385	0.264161050319672	-0.564456284046173	0.985873352050781	0.0111704893112183	-0.155779403686523	0.267402172088623	0.0	1.39660704135895	-0.795884191989899	-0.766107618808746	0.608404695987701	-0.492280151367188	0.134305633544922	0.863825378417969	-0.615173101425171	0.0872849375009537	0.0	0.205563858151436	0.895510315895081	-1.16063976287842	0.973043029785156	-0.0619484024047852	-0.216284912109375	1.570840716362	0.265099436044693	-1.66553282737732	-0.864250540733337	0.0615126229822636	1.12891590595245	0.966782531738281	0.191384857177734	-0.184609039306641	0.0	-0.876905143260956	0.0915595293045044	-1.11181616783142	0.198234707117081	-0.778814315795898	-0.15968440246582	0.946322265625	0.28760009765625	-3.05478620529175	2.79701375961304	0.612603545188904	0.603991806507111	-0.601082444190979	-0.597653150558472
0.967799987792969	-0.12646533203125	-0.214861175537109	-32.1747131347656	5.33491563796997	11.277943611145	-0.883782267570496	0.544429957866669	-0.073969654738903	0.969742919921875	0.059564380645752	0.225579055786133	1.66084730625153	1.83677005767822	-2.2742645740509	-0.823735415935516	-0.590083181858063	-0.237300932407379	0.98972509765625	0.0751908264160156	0.179686660766602	0.52127081155777	-0.960315763950348	-1.04722714424133	-1.00853610038757	-0.145990386605263	0.339353889226913	0.956536926269531	0.226076614379883	0.241197494506836	-0.525214552879333	-1.13886678218842	-1.30731022357941	-0.910157144069672	-0.599622189998627	0.220217868685722	0.984855224609375	-0.128916320800781	0.0619983558654785	-1.57534205913544	1.9236626625061	1.22578883171082	-0.784897327423096	0.293215990066528	-0.577144205570221	0.948247131347656	-0.158212615966797	0.270015197753906	2.79497528076172	1.5721001625061	-2.62295079231262	-0.62279486656189	-0.0974147617816925	-0.780761241912842	1.00095959472656	0.0556929397583008	0.110811721801758	2.8828284740448	-2.36216592788696	1.13668942451477	-0.930661916732788	0.529062271118164	-0.0048879538662731	0.970217834472656	0.113814964294434	-0.214391036987305	1.48158133029938	1.05277454853058	-0.35360112786293	-0.747559189796448	-0.515616893768311	0.694103121757507	0.982920654296875	0.184533050537109	-0.108361694335937	1.49207293987274	-0.435891032218933	1.74498903751373	-0.928939938545227	-0.650620698928833	-0.588385105133057	-0.510755676269531	-0.225027206420898	0.823638122558594	-0.428435832262039	0.0	-0.528725981712341	0.360344350337982	1.20556557178497	-0.768076717853546	0.975571533203125	-0.124062553405762	-0.20458740234375	2.27530002593994	-1.83768260478973	0.614730179309845	-0.894057035446167	0.265145301818848	-0.555898725986481	0.999054138183594	0.0244050903320313	-0.162623275756836	0.173024922609329	0.0	0.612211287021637	-0.800772070884705	-0.765139102935791	0.605715453624725	-0.492280151367188	0.133364242553711	0.866135864257813	-0.344496935606003	0.0	0.0	0.204349398612976	0.896737635135651	-1.15771079063416	0.972176940917969	-0.061526985168457	-0.213901611328125	1.22935366630554	0.0	-1.83782935142517	-0.864492535591125	0.0615126229822636	1.12891590595245	0.966298034667969	0.189953048706055	-0.178181976318359	-0.264982044696808	-1.13829028606415	-0.259418666362762	-1.11181616783142	0.197020456194878	-0.777597904205322	-0.153328201293945	0.950721496582031	0.284675018310547	-4.27670049667358	2.88565158843994	0.17248061299324	0.603991806507111	-0.600817322731018	-0.597899198532104
0.965342468261719	-0.131357559204102	-0.217783386230469	-32.3530197143555	4.37177133560181	11.0146636962891	-0.880368649959564	0.545400679111481	-0.0664069801568985	0.968728088378906	0.0664094085693359	0.238277755737305	0.438938230276108	1.57274854183197	-1.92437779903412	-0.822264790534973	-0.586430609226227	-0.234369471669197	0.9780166015625	0.0649341049194336	0.194327789306641	0.609788477420807	-2.01115298271179	-1.40136194229126	-1.00343370437622	-0.150873228907585	0.340338587760925	0.953629333496094	0.221216445922852	0.234384918212891	-0.0893982201814651	-0.0876051336526871	-1.30731022357941	-0.91161721944809	-0.602050185203552	0.21875262260437	0.990727661132813	-0.123530044555664	0.0649491119384766	-1.65665006637573	3.40929961204529	1.31275355815887	-0.781244993209839	0.294429451227188	-0.577144205570221	0.955058349609375	-0.1547705078125	0.261723510742188	1.65748536586761	1.5721001625061	-2.53833961486816	-0.622559189796448	-0.0976570323109627	-0.780761241912842	0.995143127441406	0.0547158737182617	0.101093063354492	2.79821705818176	-3.23477792739868	1.13668942451477	-0.935539424419403	0.533693909645081	-0.0019450334366411	0.970792419433594	0.113328575134277	-0.213415725708008	1.48158133029938	0.961794018745422	0.265200853347778	-0.749991297721863	-0.515616893768311	0.696784436702728	0.9780546875	0.180707214355469	-0.118650245666504	1.30937016010284	0.258810311555862	1.57408809661865	-0.93018364906311	-0.647956728935242	-0.586904525756836	-0.51473876953125	-0.232424896240234	0.832049377441406	-0.265222191810608	-0.271986275911331	-0.784561157226562	0.357903450727463	1.20800089836121	-0.768076717853546	0.973649230957031	-0.126453895568848	-0.205050003051758	2.79672288894653	-1.30656039714813	1.13905882835388	-0.897958874702454	0.266108989715576	-0.547360241413116	0.982944274902344	0.004856734752655	-0.157734802246094	0.51907479763031	0.267271429300308	0.5261190533638	-0.805659890174866	-0.764170587062836	0.603026151657104	-0.493064453125	0.130853851318359	0.860359680175781	-0.172248467803001	-0.0872849375009537	0.0	0.203134953975677	0.897935688495636	-1.15478193759918	0.981054260253906	-0.0547843017578125	-0.215291870117188	0.956163942813873	0.43982407450676	-2.62752175331116	-0.864734530448914	0.0615126229822636	1.12891590595245	0.965329040527344	0.183589462280273	-0.179196762084961	-0.180669575929642	-0.876905143260956	-1.31235325336456	-1.11181616783142	0.195806190371513	-0.776381492614746	-0.156746154785156	0.940945434570313	0.28760009765625	-3.66574335098267	2.88565158843994	0.0	0.603991806507111	-0.600581645965576	-0.598145246505737
0.9696904296875	-0.130861251831055	-0.228524459838867	-31.8247013092041	5.07155561447144	9.88016796112061	-0.886721014976501	0.548333525657654	-0.0693333297967911	0.972651977539063	0.0717734527587891	0.241691833496094	-0.610954582691193	1.39976894855499	-1.31207573413849	-0.823735415935516	-0.584954440593719	-0.231438010931015	0.985843811035156	0.0717719192504883	0.183109268188477	0.0	-0.960315763950348	-1.48736619949341	-1.00343370437622	-0.15112067759037	0.340338587760925	0.954598510742187	0.217296936035156	0.239251037597656	-0.0893982201814651	-0.788446187973022	-1.13132619857788	-0.908950984477997	-0.598141729831696	0.224613606929779	0.982897766113281	-0.127924110412598	0.0615119667053223	-1.21961963176727	1.5732421875	0.786823928356171	-0.782472431659698	0.296879708766937	-0.575442552566528	0.947274108886719	-0.161613265991211	0.274417236328125	1.65748536586761	2.79975152015686	-2.36065578460693	-0.625240087509155	-0.0976570323109627	-0.784914791584015	0.997081970214844	0.0542273368835449	0.104999588012695	3.14874982833862	-3.4070770740509	1.13668942451477	-0.934327602386475	0.533693909645081	-0.0048879538662731	0.972707580566406	0.113814964294434	-0.210933120727539	1.39610540866852	1.66364371776581	-0.265200853347778	-0.748775243759155	-0.514408528804779	0.698249518871307	0.980938232421875	0.18019709777832	-0.118152412414551	0.167477577924728	0.0	1.22329127788544	-0.930406868457794	-0.647956728935242	-0.586904525756836	-0.5165771484375	-0.230016342163086	0.82231005859375	-0.530444383621216	0.523050546646118	-0.358169227838516	0.357903450727463	1.20800089836121	-0.768076717853546	0.979416137695313	-0.123488632202148	-0.208056945800781	1.92452454566956	-1.40216243267059	0.958255887031555	-0.896470904350281	0.263668954372406	-0.561521172523499	0.990266906738281	0.00971346950531	-0.152846328735352	0.346049845218658	0.704624712467194	1.39660704135895	-0.805659890174866	-0.766605734825134	0.607176244258881	-0.490188659667969	0.13273664855957	0.867291076660156	0.258372694253922	-0.0872849375009537	0.0839949399232864	0.207992747426033	0.89574408531189	-1.1564873456955	0.971743896484375	-0.0634233665466309	-0.213901611328125	0.443933248519897	1.13872265815735	-1.22043359279633	-0.866942822933197	0.0615126229822636	1.11939907073975	0.967266967773437	0.186453079223633	-0.184101638793945	0.264982044696808	-0.261385172605515	0.350978195667267	-1.11181616783142	0.195806190371513	-0.776381492614746	-0.152368789672852	0.948766296386719	0.282245697021484	-4.18942070007324	2.3636736869812	0.17248061299324	0.602781593799591	-0.601818978786469	-0.593754589557648
0.963357482910156	-0.132822875976563	-0.224615020751953	-30.6029605865479	4.37177133560181	9.96633243560791	-0.893073379993439	0.551266312599182	-0.0722596794366837	0.970216491699219	0.0615149459838867	0.235842102050781	0.0889739617705345	1.04925775527954	-1.31207573413849	-0.825205981731415	-0.583497226238251	-0.228522926568985	0.983903198242188	0.0624956207275391	0.186056503295898	0.52127081155777	-2.44801807403564	-0.526143133640289	-1.00343370437622	-0.151368111371994	0.340338587760925	0.957506103515625	0.217767288208008	0.236331359863281	-0.0893982201814651	-0.0876051336526871	-0.967912375926971	-0.906253099441528	-0.594233274459839	0.230474591255188	0.987791442871094	-0.124026145935059	0.0668946685791016	-1.40256261825562	1.9236626625061	0.525929689407349	-0.783699870109558	0.299318313598633	-0.573740839958191	0.9497353515625	-0.159166458129883	0.264658203125	1.83081710338593	2.62311100959778	-2.2760443687439	-0.627920985221863	-0.0976570323109627	-0.789068281650543	0.99655322265625	0.0586241493225098	0.108906105041504	3.67454862594604	-3.49600577354431	0.700958430767059	-0.933115839958191	0.533693909645081	-0.007813960313797	0.968685729980469	0.118678855895996	-0.221661529541016	2.00868225097656	0.259944319725037	-0.521561682224274	-0.747559189796448	-0.513178646564484	0.699714541435242	0.977514038085938	0.184533050537109	-0.102055801391602	0.700360774993896	0.967133224010468	1.05239033699036	-0.930661976337433	-0.647956728935242	-0.586904525756836	-0.513819580078125	-0.232941009521484	0.825187561035156	-0.183615356683731	-0.962413012981415	-0.784561157226562	0.357903450727463	1.20800089836121	-0.768076717853546	0.97220751953125	-0.128940887451172	-0.197301361083984	3.06217455863953	-1.40216243267059	0.614730179309845	-0.895015954971313	0.261228889226913	-0.575682163238525	0.991243286132813	0.0117775812149048	-0.160124725341797	0.267402172088623	0.170081824064255	0.5261190533638	-0.805659890174866	-0.769040882587433	0.611326396465302	-0.492280151367188	0.128971069335937	0.865269470214844	0.0	0.0	0.0	0.212886288762093	0.893552422523499	-1.15819275379181	0.97802294921875	-0.0541521759033203	-0.207049606323242	0.341487109661102	0.265099436044693	-1.66553282737732	-0.869151055812836	0.0615126229822636	1.10984671115875	0.968720458984375	0.188521240234375	-0.185539276123047	0.180669575929642	-0.784155547618866	-0.350978195667267	-1.11181616783142	0.195806190371513	-0.776381492614746	-0.156746154785156	0.940945434570313	0.285666564941406	-3.49118423461914	1.0538045167923	0.440122932195663	0.601571321487427	-0.603026866912842	-0.589363992214203
0.965815063476563	-0.125000030517578	-0.212412841796875	-30.6029605865479	4.8947286605835	10.4928913116455	-0.890876770019531	0.54858136177063	-0.0754328295588493	0.969742919921875	0.0693352508544922	0.247562393188477	0.260990291833878	1.48625874519348	-1.13713228702545	-0.822745025157928	-0.585938572883606	-0.228522926568985	0.98487353515625	0.0664173049926758	0.181635635375977	0.875341534614563	-1.05083727836609	-0.961223006248474	-1.00343370437622	-0.147458538413048	0.341790616512299	0.959444519042969	0.224613342285156	0.236817977905273	0.435816317796707	-0.175210267305374	-1.13132619857788	-0.906253099441528	-0.594233274459839	0.230474591255188	0.985833984375	-0.123530044555664	0.0668946685791016	-1.57534205913544	2.01126790046692	0.699859142303467	-0.783699870109558	0.298093199729919	-0.576897621154785	0.944812927246094	-0.162110916137695	0.269036956787109	2.1016480922699	1.92538106441498	-2.09836077690125	-0.624032199382782	-0.0986261144280434	-0.786367237567902	0.996112548828125	0.0566700096130371	0.100140258789063	3.05809473991394	-3.84616208076477	1.48527407646179	-0.929450154304504	0.532477080821991	-0.0161184072494507	0.968685729980469	0.119651634216309	-0.221218215942383	1.75225484371185	1.05277454853058	0.176800563931465	-0.747559189796448	-0.513178646564484	0.699714541435242	0.968322814941406	0.182110015869141	-0.1137548828125	0.609009385108948	-0.08172956854105	0.962442398071289	-0.92919510602951	-0.650390446186066	-0.592520356178284	-0.512594055175781	-0.230532455444336	0.83536962890625	-1.04048705101013	-0.355674386024475	-0.614004373550415	0.357903450727463	1.20923781394958	-0.766601324081421	0.975090942382812	-0.130853958129883	-0.211873443603516	2.88204669952393	-1.22158086299896	0.614730179309845	-0.892569005489349	0.263915002346039	-0.568611204624176	0.981479736328125	0.003399714231491	-0.158169326782227	1.05387914180756	-0.0850409120321274	0.612211287021637	-0.805659890174866	-0.769040882587433	0.611326396465302	-0.494110168457031	0.125519287109375	0.863247802734375	-0.0861242339015007	-0.261854827404022	0.431973993778229	0.212886288762093	0.893552422523499	-1.15819275379181	0.972176940917969	-0.0655304565429688	-0.220654312133789	-0.256115347146988	0.614548742771149	-1.22043359279633	-0.865490794181824	0.0590964145958424	1.10572755336761	0.96339111328125	0.183589462280273	-0.178689361572266	1.66216015815735	-1.57674288749695	-0.610396862030029	-1.11060976982117	0.197274595499039	-0.776381492614746	-0.157705581665039	0.941923034667969	0.276841735839844	-3.49118423461914	2.18639802932739	0.0	0.600103557109833	-0.60205465555191	-0.596195936203003
0.970257568359375	-0.133791854858398	-0.219718353271484	-30.2529468536377	4.10841178894043	9.7940034866333	-0.888680160045624	0.545896351337433	-0.078605979681015	0.968728088378906	0.0678723297119141	0.243169891357422	0.699928522109985	1.13574755191803	-1.66196262836456	-0.820314049720764	-0.588379919528961	-0.228522926568985	0.986814147949219	0.0707914962768555	0.183109268188477	1.21957695484161	-1.48770225048065	-0.875218868255615	-1.00343370437622	-0.143548965454102	0.343259304761887	0.948718688964844	0.214840728759766	0.234871520996094	0.871632635593414	-0.700841069221497	-1.04333412647247	-0.906253099441528	-0.594233274459839	0.230474591255188	0.996110717773438	-0.119135971069336	0.0707857818603516	-1.13831162452698	1.74845242500305	0.612894415855408	-0.783699870109558	0.296879708766937	-0.580079019069672	0.947274108886719	-0.167460693359375	0.266102264404297	2.01498222351074	1.48819601535797	-2.62295079231262	-0.620113968849182	-0.0996172204613686	-0.783691644668579	0.994614379882813	0.0571585464477539	0.111859809875488	3.05809473991394	-3.14584922790527	0.788104653358459	-0.925784468650818	0.531240701675415	-0.0244059413671494	0.966770568847656	0.125001907348633	-0.219267593383789	1.56705713272095	1.75462424755096	-0.0884002819657326	-0.747559189796448	-0.513178646564484	0.699714541435242	0.972648132324219	0.179176879882813	-0.114750549316406	0.0	-0.694701313972473	1.57408809661865	-0.927728176116943	-0.65282416343689	-0.598136186599731	-0.51596435546875	-0.230532455444336	0.832492065429687	0.183615356683731	-0.355674386024475	-0.44344761967659	0.357903450727463	1.21043610572815	-0.76512598991394	0.981498657226562	-0.123488632202148	-0.208982162475586	2.53127121925354	-1.22158086299896	1.3108217716217	-0.890122056007385	0.266601115465164	-0.561521172523499	0.989290588378906	0.0106848163604736	-0.151868621826172	0.880854189395905	0.60743510723114	0.784395694732666	-0.805659890174866	-0.769040882587433	0.611326396465302	-0.490711547851563	0.129912460327148	0.860359680175781	0.0	0.261854827404022	-0.179989159107208	0.212886288762093	0.893552422523499	-1.15819275379181	0.977156921386719	-0.0571021003723145	-0.217774490356445	-0.170743554830551	0.614548742771149	-1.57938456535339	-0.861830532550812	0.0566466487944126	1.1015727519989	0.969204895019531	0.185975799560547	-0.181141799926758	0.0	-0.961222946643829	-0.259418666362762	-1.10936892032623	0.198743000626564	-0.776381492614746	-0.15038996887207	0.943878234863281	0.288095886230469	-3.49118423461914	0.610615670681	-0.0892141088843346	0.598635792732239	-0.601082444190979	-0.603027880191803
0.965342468261719	-0.138187774658203	-0.220705581665039	-29.5529232025146	5.07155561447144	10.3157758712769	-0.888175547122955	0.546867072582245	-0.0776364058256149	0.977049499511719	0.0746992950439453	0.235842102050781	1.74982130527496	1.39976894855499	-1.22460401058197	-0.820073962211609	-0.588379919528961	-0.228522926568985	0.977046264648437	0.0673725891113281	0.191428085327148	1.21957695484161	-1.13742315769196	-0.0860041677951813	-1.00853610038757	-0.142328262329102	0.340822607278824	0.949235595703125	0.216304000854492	0.235358139038086	0.704010963439941	0.350420534610748	-0.351968139410019	-0.906253099441528	-0.594233274459839	0.229009345173836	0.988770202636719	-0.119135971069336	0.0634899482727051	-0.874060750007629	1.31042671203613	0.786823928356171	-0.783699870109558	0.296879708766937	-0.580079019069672	0.952139282226563	-0.161115600585937	0.270015197753906	2.36164569854736	1.39987576007843	-2.96985721588135	-0.618906080722809	-0.103273302316666	-0.786367237567902	0.991706176757812	0.0561814765930176	0.0937564392089844	3.05809473991394	-3.75723338127136	1.48527407646179	-0.92820805311203	0.531240701675415	-0.0134291872382164	0.963323303222656	0.126947463989258	-0.20951448059082	1.13967788219452	2.014568567276	0.265200853347778	-0.745127081871033	-0.516846835613251	0.698249518871307	0.971747009277344	0.18019709777832	-0.116244049072266	-0.167477577924728	-0.354161471128464	1.8349369764328	-0.928939938545227	-0.653087258338928	-0.591065347194672	-0.518109069824219	-0.237758102416992	0.826736999511719	0.183615356683731	-0.523050546646118	-0.95511794090271	0.360344350337982	1.21287131309509	-0.763905942440033	0.969804626464844	-0.131810485839844	-0.190477920532227	1.48842549324036	-0.350540608167648	1.48258459568024	-0.890122056007385	0.266601115465164	-0.561521172523499	0.989778747558594	0.0166343154907227	-0.151325469970703	0.51907479763031	0.60743510723114	0.353934645652771	-0.805659890174866	-0.769040882587433	0.609865546226501	-0.483391387939453	0.134776336669922	0.858338073730469	-0.344496935606003	-0.0872849375009537	0.179989159107208	0.205563858151436	0.89574408531189	-1.16453266143799	0.967196960449219	-0.0634233665466309	-0.214398132324219	-0.870792150497437	0.614548742771149	-1.49323630332947	-0.864492535591125	0.0532236881554127	1.11670029163361	0.964844604492187	0.185021270751953	-0.181649200439453	1.13219594955444	-0.615519940853119	-0.259418666362762	-1.11181616783142	0.196032106876373	-0.777597904205322	-0.158665008544922	0.937035034179687	0.290525177001953	-1.74559211730957	1.13259363174438	-0.17248061299324	0.598635792732239	-0.602290332317352	-0.60034054517746
0.961939697265625	-0.139156768798828	-0.219718353271484	-29.9887866973877	5.42144775390625	9.61688804626465	-0.88770055770874	0.547858476638794	-0.0766668319702148	0.969269348144531	0.0756745758056641	0.237798950195312	0.699928522109985	0.612256705760956	-1.74943435192108	-0.819833874702454	-0.588379919528961	-0.228522926568985	0.981962524414063	0.0712942810058594	0.176264053344727	2.09491848945618	-0.0865858495235443	-0.961223006248474	-1.01367020606995	-0.14110754430294	0.338385879993439	0.954081604003906	0.222679718017578	0.238277816772461	1.48624539375305	-0.525630831718445	-0.527952194213867	-0.906253099441528	-0.594233274459839	0.227544099092484	0.981919006347656	-0.125975128173828	0.0630035591125488	-0.965532243251801	2.09887290000916	0.438964903354645	-0.783699870109558	0.296879708766937	-0.580079019069672	0.957519592285156	-0.159664108276367	0.256343231201172	1.83081710338593	2.00928544998169	-2.53833961486816	-0.617668747901917	-0.106929384171963	-0.789068281650543	0.993204345703125	0.0610057525634766	0.108906105041504	2.44768452644348	-4.19631862640381	1.22383558750153	-0.930661916732788	0.531240701675415	-0.0024355202913284	0.963323303222656	0.12402912902832	-0.221218215942383	0.783528566360474	0.610869169235229	-0.0884002819657326	-0.742666006088257	-0.520514965057373	0.696784436702728	0.969764587402344	0.18402294921875	-0.111348693847656	-0.959189772605896	0.531242191791534	2.09578585624695	-0.93018364906311	-0.653317451477051	-0.583994507789612	-0.5141259765625	-0.232424896240234	0.829171875	0.0816068276762962	-0.523050546646118	-0.255835145711899	0.362785220146179	1.21534526348114	-0.762685894966125	0.980056945800781	-0.127888694763184	-0.210948226928711	1.40310168266296	-0.786060750484467	1.2204202413559	-0.890122056007385	0.266601115465164	-0.561521172523499	0.990266906738281	0.0127489280700684	-0.159690185546875	0.0	0.0	0.698303520679474	-0.805659890174866	-0.769040882587433	0.608404695987701	-0.496985961914063	0.127402076721191	0.865847045898438	-0.701297342777252	0.436424672603607	0.611963152885437	0.198241412639618	0.897935688495636	-1.17090964317322	0.972609985351563	-0.0678482513427734	-0.218271011352539	-0.870792150497437	0.5241739153862	-0.789692282676697	-0.867184817790985	0.0498007275164127	1.13182783126831	0.972596252441406	0.196316635131836	-0.183086837768555	1.0478835105896	-1.22260808944702	0.0	-1.11426329612732	0.193349435925484	-0.778814315795898	-0.153807922363281	0.945344665527344	0.279320617675781	-2.53110837936401	0.354551047086716	-0.523389399051666	0.598635792732239	-0.603527665138245	-0.597653150558472
0.966287658691406	-0.141591064453125	-0.221179458618164	-28.9387512207031	4.80819606781006	9.53072357177734	-0.886721014976501	0.550047755241394	-0.0703205317258835	0.975561096191406	0.0781308441162109	0.24462712097168	1.31088304519653	0.0864897891879082	-1.22460401058197	-0.822504937648773	-0.586184620857239	-0.235843390226364	0.989272277832031	0.0791125183105469	0.180162017822266	2.00640082359314	-0.873729884624481	-0.875218868255615	-1.01099157333374	-0.142328262329102	0.335198134183884	0.949687866210937	0.219230560302734	0.229486358642578	1.13982725143433	0.175210267305374	0.0	-0.907459199428558	-0.59571373462677	0.227544099092484	0.988280822753906	-0.125975128173828	0.0737365341186523	-0.345558911561966	2.09887290000916	0.347858995199203	-0.786124765872955	0.296879708766937	-0.583260416984558	0.946758972167969	-0.16551155090332	0.264658203125	2.36164569854736	1.92538106441498	-2.70756220817566	-0.617668747901917	-0.107171654701233	-0.789297640323639	0.987299743652344	0.0556929397583008	0.101093063354492	2.44768452644348	-3.75723338127136	1.48527407646179	-0.930661916732788	0.531240701675415	-0.0021987333893775	0.963323303222656	0.12013801574707	-0.207563858032227	1.31062960624695	1.05277454853058	-0.609961926937103	-0.747559189796448	-0.515616893768311	0.695568203926086	0.980938232421875	0.185043167114258	-0.118152412414551	0.0	-0.08172956854105	1.57408809661865	-0.930406868457794	-0.653087258338928	-0.584224283695221	-0.509836517333984	-0.226575561523437	0.827622436523437	0.0	-0.962413012981415	0.358169227838516	0.361808866262436	1.21167302131653	-0.765381336212158	0.977974426269531	-0.129419143676758	-0.204124801635742	1.65907287597656	-0.616101682186127	1.48258459568024	-0.894057035446167	0.265145301818848	-0.552982687950134	0.995148681640625	0.0137202749252319	-0.153280853271484	0.613452017307281	0.704624712467194	0.784395694732666	-0.804453432559967	-0.766605734825134	0.602793753147125	-0.49620166015625	0.126931381225586	0.867579895019531	0.344496935606003	-0.349139750003815	-0.431973993778229	0.199455872178078	0.895510315895081	-1.16553366184235	0.97499169921875	-0.071219596862793	-0.206553085327148	-0.700048565864563	0.349449276924133	-1.49323630332947	-0.867184817790985	0.0495658181607723	1.13182783126831	0.96339111328125	0.185975799560547	-0.178689361572266	0.43360698223114	-0.876905143260956	-0.518837332725525	-1.11426329612732	0.196032106876373	-0.778814315795898	-0.153807922363281	0.947788696289062	0.28760009765625	-2.00743079185486	0.265913277864456	0.0	0.598635792732239	-0.603527665138245	-0.597653150558472
0.965815063476563	-0.139156768798828	-0.228998336791992	-27.9811687469482	4.37177133560181	9.53072357177734	-0.885741412639618	0.552237033843994	-0.0639566034078598	0.977523071289062	0.0839825286865234	0.229013946533203	1.66084730625153	0.0	-1.13713228702545	-0.825205981731415	-0.583989262580872	-0.243163853883743	0.984356018066406	0.0776293106079102	0.186531860351562	2.88174247741699	-0.787144064903259	-1.40136194229126	-1.00831282138824	-0.143548965454102	0.332027077674866	0.949235595703125	0.221686782836914	0.236817977905273	1.92206168174744	-0.262815415859222	-0.175984069705009	-0.908697068691254	-0.597164630889893	0.227544099092484	0.993663879394531	-0.116690887451172	0.0561616897583008	-0.528501868247986	3.05887913703918	0.525929689407349	-0.788579642772675	0.296879708766937	-0.586417198181152	0.947274108886719	-0.163106216430664	0.275884582519531	2.79497528076172	1.66042041778564	-3.40983605384827	-0.617668747901917	-0.107413925230503	-0.789552450180054	0.989767333984375	0.058135612487793	0.106428802490234	2.44768452644348	-2.712322473526	1.39812791347504	-0.930661916732788	0.531240701675415	-0.0019450334366411	0.966387512207031	0.125001907348633	-0.215366348266602	0.527101039886475	0.701849699020386	-0.521561682224274	-0.752452373504639	-0.510740339756012	0.694324254989624	0.984362426757812	0.179176879882813	-0.116658912658691	-1.49207293987274	-0.694701313972473	1.13334333896637	-0.930661976337433	-0.65282416343689	-0.584479510784149	-0.512287658691406	-0.229500228881836	0.824744873046875	0.0816068276762962	-1.65283977985382	0.0	0.360832512378693	1.20800089836121	-0.768076717853546	0.975090942382812	-0.134775741577148	-0.205050003051758	2.09517216682434	-0.786060750484467	1.2204202413559	-0.897958874702454	0.263668954372406	-0.544425129890442	0.990266906738281	0.0122632551193237	-0.154801712036133	0.346049845218658	0.267271429300308	0.353934645652771	-0.803215980529785	-0.764170587062836	0.597182810306549	-0.488881500244141	0.133834945678711	0.8696015625	0.0	0.261854827404022	-0.263984113931656	0.200670316815376	0.893055617809296	-1.16015779972076	0.979538635253906	-0.0674268341064453	-0.216781448364258	-1.40009713172913	0.43982407450676	-0.430741250514984	-0.867184817790985	0.0493309088051319	1.13182783126831	0.964844604492187	0.186453079223633	-0.184101638793945	0.349294513463974	-1.04554069042206	-0.701956391334534	-1.11426329612732	0.198743000626564	-0.778814315795898	-0.152848495483398	0.942900634765625	0.280262603759766	-2.61838817596436	0.0886377617716789	-0.523389399051666	0.598635792732239	-0.603527665138245	-0.597653150558472
0.960899963378906	-0.144521682739258	-0.223627792358398	-28.5028858184814	4.54483652114868	9.1812801361084	-0.884761869907379	0.553228437900543	-0.0603074803948402	0.963383483886719	0.0629959259033203	0.238277755737305	1.48883104324341	-0.261745423078537	-0.874717175960541	-0.826406478881836	-0.583989262580872	-0.238774850964546	0.982932861328125	0.0737327651977539	0.178688400268555	3.23581314086914	-1.13742315769196	-1.31029880046844	-1.00831282138824	-0.143548965454102	0.332277417182922	0.945811096191406	0.214370376586914	0.226566680908203	2.53667449951172	0.0876051336526871	0.351968139410019	-0.911363303661346	-0.595950663089752	0.226078853011131	0.987302062988281	-0.130369201660156	0.0654355010986328	-0.345558911561966	3.05887913703918	1.13468289375305	-0.787352204322815	0.295654594898224	-0.586417198181152	0.946758972167969	-0.16406005859375	0.263190856933594	2.79497528076172	1.74874067306519	-2.44526696205139	-0.618906080722809	-0.106202572584152	-0.783946454524994	0.997522583007812	0.0683337707519531	0.0971865463256836	2.97348356246948	-3.49600577354431	0.96239697933197	-0.930661916732788	0.532477080821991	-0.0009809733601287	0.976154846191406	0.12792024230957	-0.216341659545898	0.869004428386688	1.05277454853058	-0.433161377906799	-0.752452373504639	-0.511970281600952	0.697033226490021	0.982920654296875	0.17037744140625	-0.123545600891113	-1.30937016010284	0.08172956854105	1.57408809661865	-0.930661976337433	-0.65282416343689	-0.584479510784149	-0.507385375976563	-0.225027206420898	0.83404150390625	1.04048705101013	-0.878724932670593	0.0	0.360588431358337	1.20800089836121	-0.768076717853546	0.969163818359375	-0.134297485351562	-0.208056945800781	2.09517216682434	-0.0849795415997505	1.66338753700256	-0.896470904350281	0.265145301818848	-0.560053646564484	0.988802368164063	0.0101991424560547	-0.148392379760742	0.613452017307281	-0.267271429300308	0.612211287021637	-0.803215980529785	-0.763921499252319	0.597182810306549	-0.491757263183594	0.128971069335937	0.862670166015625	-0.0861242339015007	-0.0872849375009537	0.347979038953781	0.200670316815376	0.893055617809296	-1.16015779972076	0.98495166015625	-0.0678482513427734	-0.210425964355469	-0.700048565864563	1.0483478307724	-1.04813706874847	-0.865732789039612	0.0529887787997723	1.11815619468689	0.973080749511719	0.194407562255859	-0.179196762084961	1.83078503608704	-1.13829028606415	-0.350978195667267	-1.11426329612732	0.198488861322403	-0.778814315795898	-0.146492294311523	0.954061645507812	0.284675018310547	-1.30919408798218	0.0	-0.612603545188904	0.598635792732239	-0.602290332317352	-0.596195936203003
0.959009521484375	-0.136722473144531	-0.219244491577148	-27.7170085906982	5.07155561447144	9.70305252075195	-0.883782267570496	0.554199159145355	-0.0566407293081284	0.966766174316406	0.0649464874267578	0.230949981689453	1.13886678218842	-0.0864897891879082	-1.31207573413849	-0.827636957168579	-0.583989262580872	-0.234369471669197	0.992183227539063	0.0859251937866211	0.191903457641602	2.44898915290833	-0.350279092788696	-1.48736619949341	-1.00831282138824	-0.143548965454102	0.332527756690979	0.954081604003906	0.226546951293945	0.231432800292969	2.01146006584167	0.0876051336526871	-0.791928350925446	-0.91406124830246	-0.594736635684967	0.224613606929779	0.99219580078125	-0.127924110412598	0.0619983558654785	-0.0914714783430099	2.71210885047913	1.39971828460693	-0.786124765872955	0.294429451227188	-0.586417198181152	0.950193237304688	-0.161115600585937	0.265147308349609	2.01498222351074	2.53479075431824	-3.23215222358704	-0.620113968849182	-0.104991219937801	-0.778315007686615	0.991177368164063	0.0629598922729492	0.10547599029541	2.01254057884216	-2.97355008125305	0.875250816345215	-0.930661916732788	0.533693909645081	0.0	0.973090576171875	0.123542739868164	-0.212883743286133	0.170951694250107	0.0909805148839951	-0.0884002819657326	-0.752452373504639	-0.513178646564484	0.699714541435242	0.994094299316406	0.172800476074219	-0.120641578674316	-0.867838382720947	-0.354161471128464	1.22329127788544	-0.930661976337433	-0.65282416343689	-0.584479510784149	-0.511368469238281	-0.230532455444336	0.826072998046875	0.183615356683731	-0.167376175522804	0.170556768774986	0.360344350337982	1.20800089836121	-0.768076717853546	0.969163818359375	-0.134297485351562	-0.190940536499023	2.53127121925354	-0.871040284633636	0.433927178382874	-0.895015954971313	0.266601115465164	-0.575682163238525	0.9917314453125	0.0127489280700684	-0.153280853271484	0.346049845218658	0.437353253364563	0.440026849508286	-0.803215980529785	-0.763672471046448	0.597182810306549	-0.495678771972656	0.126931381225586	0.863825378417969	0.344496935606003	-0.261854827404022	-0.263984113931656	0.200670316815376	0.893055617809296	-1.16015779972076	0.975641235351563	-0.074801643371582	-0.213405090332031	-1.40009713172913	0.265099436044693	0.0	-0.864250540733337	0.0566466487944126	1.10448467731476	0.965813537597656	0.191862121582031	-0.193826797485352	0.180669575929642	-0.961222946643829	0.167859137058258	-1.11426329612732	0.198234707117081	-0.778814315795898	-0.146492294311523	0.952676696777344	0.286608551025391	-0.610957205295563	-0.177275523543358	0.0	0.598635792732239	-0.601082444190979	-0.594719767570496
0.957969787597656	-0.130861251831055	-0.222640563964844	-26.9311332702637	4.37177133560181	9.35360813140869	-0.882565259933472	0.556388437747955	-0.0568875297904015	0.963383483886719	0.0683599700927734	0.241691833496094	0.699928522109985	0.523490846157074	-1.04966056346893	-0.823975503444672	-0.586184620857239	-0.232911929488182	0.98487353515625	0.0805705795288086	0.184059982299805	2.88174247741699	0.0865858495235443	-0.263071566820145	-1.00585734844208	-0.139655888080597	0.340822607278824	0.951174011230469	0.227539901733398	0.237791198730469	1.66504180431366	-0.0876051336526871	-0.0879920348525047	-0.91406124830246	-0.594736635684967	0.224857807159424	0.988770202636719	-0.125975128173828	0.0727637557983398	0.264250934123993	3.146484375	2.01261281967163	-0.784897327423096	0.294429451227188	-0.586417198181152	0.947731994628906	-0.16406005859375	0.260256164550781	2.44831156730652	2.36256623268127	-2.1829719543457	-0.617668747901917	-0.104726925492287	-0.781016051769257	0.988797912597656	0.0600286865234375	0.101569473266602	2.27241826057434	-2.712322473526	0.96239697933197	-0.930661916732788	0.532477080821991	-0.006596200633794	0.977495422363281	0.12792024230957	-0.210489791870117	0.256427526473999	0.350924849510193	-0.698362231254578	-0.752452373504639	-0.513178646564484	0.699714541435242	0.984362426757812	0.163108352661133	-0.11964591217041	-0.517657995223999	0.08172956854105	1.22329127788544	-0.927983283996582	-0.654304087162018	-0.584479510784149	-0.5141259765625	-0.226059448242187	0.83404150390625	0.265222191810608	-0.0836880877614021	0.358169227838516	0.361564785242081	1.21043610572815	-0.769523739814758	0.976052124023438	-0.126932159423828	-0.200192642211914	2.00984835624695	-0.966642260551453	1.40122318267822	-0.895015954971313	0.267831385135651	-0.570059716701508	0.992707824707031	0.0137202749252319	-0.145024765014648	0.95950186252594	0.60743510723114	0.784395694732666	-0.803215980529785	-0.762454867362976	0.601332902908325	-0.487312896728516	0.136188430786133	0.870468017578125	0.52904886007309	0.0872849375009537	0.179989159107208	0.203134953975677	0.894282937049866	-1.16308677196503	0.985817687988281	-0.0667947082519531	-0.209929443359375	-0.529305040836334	0.789273381233215	-0.531247556209564	-0.861830532550812	0.0566466487944126	1.10423612594604	0.962422180175781	0.189475784301758	-0.183086837768555	0.43360698223114	-1.22260808944702	-0.793515920639038	-1.11671054363251	0.195806190371513	-0.775877118110657	-0.149910247802734	0.957483276367188	0.275899780273437	-0.523677587509155	0.610615670681	-0.0892141088843346	0.600103557109833	-0.602290332317352	-0.60034054517746
0.964397216796875	-0.129395950317383	-0.224101669311523	-26.8386764526367	3.75851941108704	9.09511566162109	-0.881348192691803	0.558598339557648	-0.0571343302726746	0.967780944824219	0.0639712066650391	0.234863677978516	2.44974994659424	1.04925775527954	-1.31207573413849	-0.820314049720764	-0.588379919528961	-0.231438010931015	0.988754760742187	0.0859251937866211	0.195801422119141	3.05877780914307	-0.173171699047089	-1.04722714424133	-1.00343370437622	-0.135746315121651	0.349117428064346	0.953112426757812	0.229473510742187	0.232406021118164	1.92206168174744	-0.525630831718445	-0.0879920348525047	-0.91406124830246	-0.594736635684967	0.22510202229023	0.989259582519531	-0.129873092651367	0.0649491119384766	0.172779455780983	2.27408313751221	2.7083306312561	-0.783699870109558	0.294429451227188	-0.586417198181152	0.9531123046875	-0.16260856628418	0.261723510742188	2.79497528076172	1.31155550479889	-2.62295079231262	-0.615223526954651	-0.104484654963017	-0.783691644668579	0.994173767089844	0.0566700096130371	0.109858909606934	2.36307334899902	-4.1073899269104	0.875250816345215	-0.930661916732788	0.531240701675415	-0.0131754875183105	0.977495422363281	0.125488296508789	-0.214834365844727	-0.170951694250107	0.792830228805542	0.0	-0.752452373504639	-0.513178646564484	0.699714541435242	0.98382177734375	0.157242050170898	-0.120641578674316	-0.517657995223999	0.531242191791534	1.22329127788544	-0.925304591655731	-0.655751168727875	-0.584479510784149	-0.504321441650391	-0.222618667602539	0.839796569824219	0.0816068276762962	-0.795036852359772	0.44344761967659	0.362785220146179	1.21287131309509	-0.770999133586884	0.971726928710937	-0.130853958129883	-0.20169612121582	1.40310168266296	-0.435520142316818	1.2204202413559	-0.895015954971313	0.269041150808334	-0.564456284046173	0.989290588378906	0.0127489280700684	-0.151325469970703	-0.173024922609329	0.874706506729126	1.13833034038544	-0.803215980529785	-0.761237323284149	0.605483055114746	-0.495155914306641	0.127402076721191	0.860359680175781	-0.52904886007309	0.0872849375009537	0.431973993778229	0.205563858151436	0.895510315895081	-1.166015625	0.988199462890625	-0.0655304565429688	-0.210922485351562	-0.785420358181	0.0903748124837875	-1.22043359279633	-0.85938024520874	0.0566466487944126	1.10398757457733	0.968235961914062	0.192816665649414	-0.189936737060547	0.264982044696808	-0.438452571630478	0.0	-1.11915767192841	0.193349435925484	-0.77293986082077	-0.15968440246582	0.951699096679688	0.281749938964844	-0.523677587509155	0.433340162038803	-0.785084128379822	0.601571321487427	-0.603527665138245	-0.605961263179779
0.965815063476563	-0.13183024597168	-0.218257247924805	-25.7952442169189	4.28523874282837	9.1812801361084	-0.880873262882233	0.559321224689484	-0.0561471283435822	0.966766174316406	0.0639712066650391	0.237798950195312	2.53279209136963	0.175255626440048	-1.8369060754776	-0.821544528007507	-0.588379919528961	-0.232911929488182	0.981962524414063	0.0864279708862305	0.195326049804688	2.44898915290833	-0.700558185577393	-0.789214670658112	-1.00343370437622	-0.136967033147812	0.346196711063385	0.952143188476563	0.235849227905273	0.241684097290039	1.48624539375305	0.0876051336526871	0.439960181713104	-0.912855088710785	-0.59571373462677	0.226323053240776	0.99023828125	-0.127924110412598	0.0664082794189453	-0.264250934123993	3.146484375	1.57364785671234	-0.783699870109558	0.294429451227188	-0.586417198181152	0.95362744140625	-0.168456008911133	0.270993408203125	3.05497288703918	1.92538106441498	-2.36065578460693	-0.617933869361877	-0.103273302316666	-0.786367237567902	1.00439660644531	0.0658910980224609	0.102045875549316	1.48674178123474	-4.19631862640381	0.96239697933197	-0.926996231079102	0.531240701675415	-0.006596200633794	0.981900329589844	0.131324966430664	-0.211465103149414	-0.527101039886475	1.31271886825562	-0.176800563931465	-0.749991297721863	-0.511970281600952	0.699714541435242	0.983461303710938	0.159154983520508	-0.121554267883301	-0.700360774993896	0.694701313972473	1.66403591632843	-0.92919510602951	-0.655751168727875	-0.586904525756836	-0.513206848144531	-0.230532455444336	0.816997680664063	0.61205118894577	-0.523050546646118	-0.528725981712341	0.360344350337982	1.21287131309509	-0.769523739814758	0.9657998046875	-0.129897415161133	-0.199730041503906	1.05232620239258	-0.350540608167648	0.876894533634186	-0.895015954971313	0.269041150808334	-0.564208507537842	0.988314208984375	0.0171199893951416	-0.155236236572266	-0.173024922609329	0.267271429300308	0.612211287021637	-0.804453432559967	-0.763921499252319	0.606943845748901	-0.495678771972656	0.127402076721191	0.860359680175781	0.258372694253922	0.436424672603607	0.263984113931656	0.205563858151436	0.895510315895081	-1.166015625	0.973692565917969	-0.0737481002807617	-0.207546127319336	-0.700048565864563	0.614548742771149	-1.04813706874847	-0.86328250169754	0.0544317923486233	1.11645174026489	0.966782531738281	0.196793899536133	-0.182156600952148	0.0	-1.57674288749695	0.259418666362762	-1.11791682243347	0.193349435925484	-0.77293986082077	-0.153328201293945	0.957483276367188	0.284179229736328	-0.436398029327393	0.0886377617716789	-0.785084128379822	0.60254979133606	-0.604735553264618	-0.599129319190979
0.966287658691406	-0.127434326171875	-0.221692825317383	-25.7952442169189	3.58545446395874	9.1812801361084	-0.880368649959564	0.560064792633057	-0.0551775544881821	0.966766174316406	0.0688476104736328	0.231449600219727	2.53279209136963	-0.350511252880096	-2.01184940338135	-0.822745025157928	-0.588379919528961	-0.234369471669197	0.983903198242188	0.0810482177734375	0.195801422119141	1.30809462070465	-0.173171699047089	-0.263071566820145	-1.00343370437622	-0.138187736272812	0.343259304761887	0.955567687988281	0.243165618896484	0.235844757080078	1.05042910575867	0.262815415859222	0.263976097106934	-0.91161721944809	-0.596690893173218	0.227544099092484	0.979961547851563	-0.134763259887695	0.0664082794189453	0.0914714783430099	3.23408937454224	1.31275355815887	-0.783699870109558	0.294429451227188	-0.586417198181152	0.958492614746094	-0.161115600585937	0.265636444091797	3.15247201919556	1.92538106441498	-2.36065578460693	-0.620614767074585	-0.10203992575407	-0.789068281650543	0.995583801269531	0.0566700096130371	0.100140258789063	1.39608669281006	-3.93509078025818	1.04954314231873	-0.923330545425415	0.531240701675415	0.0	0.979985168457031	0.127433853149414	-0.204549270629883	-1.13967788219452	0.870813488960266	0.433161377906799	-0.747559189796448	-0.510740339756012	0.699714541435242	0.984362426757812	0.161578002929687	-0.117654579162598	-0.791712164878845	0.531242191791534	1.66403591632843	-0.933117508888245	-0.655751168727875	-0.589355111122131	-0.51718994140625	-0.230016342163086	0.832934753417969	-0.183615356683731	-0.962413012981415	-0.358169227838516	0.357903450727463	1.21287131309509	-0.768076717853546	0.966760925292969	-0.127888694763184	-0.200655258178711	1.13765001296997	-0.616101682186127	1.2204202413559	-0.895015954971313	0.269041150808334	-0.56396073102951	0.993684143066406	0.0171199893951416	-0.148935546875	-0.346049845218658	0.704624712467194	0.17218442261219	-0.805659890174866	-0.766605734825134	0.608404695987701	-0.493587310791016	0.133834945678711	0.857471618652344	-0.701297342777252	0.0	-0.0839949399232864	0.205563858151436	0.895510315895081	-1.166015625	0.973692565917969	-0.0752230606079102	-0.205063522338867	-0.341487109661102	0.174724638462067	-2.01012587547302	-0.867184817790985	0.0522504933178425	1.12891590595245	0.966782531738281	0.194407562255859	-0.180634399414063	0.0843124687671661	-0.784155547618866	0.0915595293045044	-1.11671054363251	0.193349435925484	-0.77293986082077	-0.158185302734375	0.950232666015625	0.281749938964844	0.785516440868378	0.177275523543358	-1.22520709037781	0.603528320789337	-0.605943441390991	-0.592278480529785
0.962884887695313	-0.136722473144531	-0.232433898925781	-25.6169357299805	3.67198705673218	8.21911239624023	-0.878172039985657	0.558598339557648	-0.0585975050926208	0.966766174316406	0.0712858123779297	0.241691833496094	2.3607759475708	0.350511252880096	-1.74943435192108	-0.822745025157928	-0.588625907897949	-0.234369471669197	0.980927551269531	0.0791125183105469	0.202646621704102	0.354070723056793	-0.173171699047089	0.0860041677951813	-0.998299539089203	-0.139408454298973	0.340088248252869	0.945294189453125	0.229003173828125	0.245122833251953	1.05042910575867	-0.0876051336526871	0.0	-0.910411059856415	-0.595447301864624	0.230474591255188	0.995132019042969	-0.124026145935059	0.0683538360595703	0.172779455780983	2.62450385093689	1.31275355815887	-0.781244993209839	0.297124743461609	-0.583507061004639	0.951681396484375	-0.167004516601563	0.259277923583984	3.4124698638916	1.74874067306519	-2.01374936103821	-0.620349645614624	-0.102304220199585	-0.789297640323639	1.0028984375	0.0600286865234375	0.100616661071777	1.13620913028717	-4.1073899269104	0.875250816345215	-0.923330545425415	0.531495809555054	0.0	0.976154846191406	0.123056350708008	-0.211908432006836	-0.698052704334259	0.701849699020386	-0.0884002819657326	-0.747559189796448	-0.510740339756012	0.695568203926086	0.976072265625	0.160685317993164	-0.115248382568359	0.0	-0.258810311555862	1.48414015769958	-0.933117508888245	-0.655751168727875	-0.589355111122131	-0.515657958984375	-0.231392654418945	0.826072998046875	-0.428435832262039	0.271986275911331	0.0	0.359367996454239	1.21410834789276	-0.770743787288666	0.969804626464844	-0.128462615966797	-0.206553482055664	2.18997621536255	-0.169959083199501	2.00691318511963	-0.893792450428009	0.269041150808334	-0.554450213909149	0.987826049804687	0.0122632551193237	-0.14698014831543	-0.173024922609329	0.522394180297852	0.612211287021637	-0.803215980529785	-0.765139102935791	0.611093938350677	-0.492280151367188	0.129441772460937	0.871623229980469	0.0861242339015007	-0.261854827404022	0.611963152885437	0.204349398612976	0.893055617809296	-1.166015625	0.977156921386719	-0.0682696685791016	-0.204567001342773	-1.04153573513031	0.5241739153862	-1.22043359279633	-0.867184817790985	0.0520155839622021	1.12891590595245	0.973565246582031	0.204589294433594	-0.184609039306641	0.180669575929642	-0.876905143260956	0.0	-1.11426329612732	0.19459193944931	-0.775877118110657	-0.152848495483398	0.956016845703125	0.280262603759766	-0.349118411540985	0.0	-0.701817631721497	0.603760063648224	-0.605943441390991	-0.592278480529785
0.97753564453125	-0.12206941986084	-0.229511703491211	-25.3527755737305	3.93534660339355	8.04199695587158	-0.875975370407104	0.557131946086884	-0.0620174556970596	0.971163635253906	0.0722610931396484	0.240713409423828	2.97173047065735	-0.0864897891879082	-2.2742645740509	-0.822745025157928	-0.588871955871582	-0.234369471669197	0.984356018066406	0.0820286407470703	0.196276779174805	0.265553057193756	0.350279092788696	-0.0860041677951813	-0.99316531419754	-0.140629157423973	0.336917191743851	0.945811096191406	0.236319564819336	0.231919418334961	0.614612758159637	-0.350420534610748	0.791928350925446	-0.909173190593719	-0.594233274459839	0.233405083417892	0.995132019042969	-0.123033935546875	0.0664082794189453	0.172779455780983	4.37295627593994	1.92150676250458	-0.778820037841797	0.299808382987976	-0.580572247505188	0.954085327148438	-0.167460693359375	0.275395446777344	3.75913333892822	2.53479075431824	-2.01374936103821	-0.620113968849182	-0.102546490728855	-0.789552450180054	0.999549560546875	0.0537388038635254	0.100616661071777	1.57135307788849	-4.54647493362427	0.96239697933197	-0.923330545425415	0.531731367111206	0.0	0.970792419433594	0.121597183227539	-0.212883743286133	-1.31062960624695	0.870813488960266	-0.0884002819657326	-0.747559189796448	-0.510740339756012	0.691394150257111	0.986885498046875	0.171397674560547	-0.1137548828125	0.0913514047861099	-0.354161471128464	1.05239033699036	-0.933117508888245	-0.655751168727875	-0.589355111122131	-0.5141259765625	-0.232424896240234	0.831164001464844	0.0	-0.167376175522804	0.0	0.360832512378693	1.21534526348114	-0.773439168930054	0.966280395507813	-0.127888694763184	-0.211873443603516	1.83920085430145	-0.871040284633636	1.2204202413559	-0.892569005489349	0.269041150808334	-0.54492062330246	0.996125061035156	0.0142059488296509	-0.151325469970703	0.0943772345781326	0.437353253364563	0.612211287021637	-0.800772070884705	-0.763672471046448	0.613783240318298	-0.491234405517578	0.131324554443359	0.868157531738281	0.258372694253922	-0.349139750003815	-0.431973993778229	0.203134953975677	0.890630185604095	-1.166015625	0.968279541015625	-0.0726945571899414	-0.212908569335937	-0.700048565864563	0.0903748124837875	-1.1342853307724	-0.867184817790985	0.0517471171915531	1.12891590595245	0.959030822753906	0.192816665649414	-0.180634399414063	-0.180669575929642	-0.876905143260956	-0.0915595293045044	-1.11181616783142	0.195806190371513	-0.778814315795898	-0.151349395751953	0.957483276367188	0.296871124267578	0.174559205770493	0.0	-0.261694699525833	0.603991806507111	-0.605943441390991	-0.592278480529785
0.973660278320313	-0.11864249420166	-0.223153930664062	-25.966947555542	3.14902973175049	7.43406057357788	-0.881110727787018	0.561758399009705	-0.0551775544881821	0.974140380859375	0.0703105316162109	0.237798950195312	3.14967846870422	1.04925775527954	-2.09932112693787	-0.821544528007507	-0.58983713388443	-0.234369471669197	0.9780166015625	0.0737327651977539	0.195326049804688	0.0	-0.613972365856171	0.435079902410507	-0.99316531419754	-0.140629157423973	0.33715084195137	0.94774951171875	0.231929733276367	0.238277816772461	-0.257019877433777	-0.613235950469971	0.879920363426208	-0.908950984477997	-0.59571373462677	0.227544099092484	0.989259582519531	-0.124026145935059	0.0717909851074219	-0.528501868247986	2.7960638999939	1.83454203605652	-0.783699870109558	0.298338204622269	-0.589598596096039	0.955058349609375	-0.16551155090332	0.254875885009766	3.32580375671387	2.79975152015686	-2.01374936103821	-0.614987790584564	-0.103757843375206	-0.79100489616394	1.00192901611328	0.0561814765930176	0.0873726119995117	1.39608669281006	-3.4070770740509	0.875250816345215	-0.925784468650818	0.533929407596588	0.0026892202440649	0.969643310546875	0.115760520935059	-0.208007186889648	-1.13967788219452	0.792830228805542	-0.433161377906799	-0.751207411289215	-0.515616893768311	0.695789337158203	0.976973388671875	0.169867324829102	-0.123545600891113	0.517657995223999	-0.531242191791534	1.3132392168045	-0.933117508888245	-0.654534339904785	-0.586674809455872	-0.505240631103516	-0.224167007446289	0.834484191894531	-0.530444383621216	-0.60673862695694	-0.170556768774986	0.360588431358337	1.21534526348114	-0.773439168930054	0.973649230957031	-0.121575569152832	-0.203083938598633	1.57374918460846	-1.75270307064056	1.13905882835388	-0.895015954971313	0.265145301818848	-0.561521172523499	0.982944274902344	0.0	-0.163600967407227	-0.440427094697952	0.704624712467194	0.17218442261219	-0.800772070884705	-0.763672471046448	0.613783240318298	-0.490711547851563	0.133834945678711	0.856027587890625	-0.172248467803001	0.174569875001907	-0.179989159107208	0.203134953975677	0.893055617809296	-1.16723918914795	0.977589965820313	-0.0634233665466309	-0.211419006347656	-0.529305040836334	0.873623192310333	-1.22043359279633	-0.865732789039612	0.0541968829929829	1.11108958721161	0.964360107421875	0.190430313110352	-0.180211563110352	-0.0843124687671661	-0.784155547618866	1.05293464660645	-1.11181616783142	0.195806190371513	-0.778814315795898	-0.154287628173828	0.956505676269531	0.289037841796875	-0.610957205295563	0.433340162038803	0.17248061299324	0.59886759519577	-0.604735553264618	-0.596195936203003
0.968272583007812	-0.11864249420166	-0.225088897705078	-25.702787399292	3.23556232452393	7.60638904571533	-0.886216402053833	0.566405415534973	-0.0483376532793045	0.980973388671875	0.0751869354248047	0.235842102050781	2.27180194854736	0.612256705760956	-2.18679285049438	-0.820314049720764	-0.590821206569672	-0.234369471669197	0.982415344238281	0.0707914962768555	0.189954467773437	0.354070723056793	-0.350279092788696	0.0	-0.99316531419754	-0.140629157423973	0.337401181459427	0.943872680664062	0.231929733276367	0.234384918212891	-0.78223443031311	-0.175210267305374	0.967912375926971	-0.908697068691254	-0.597164630889893	0.221683114767075	0.991217041015625	-0.124522247314453	0.0732501449584961	0.528501868247986	2.18647813796997	0.699859142303467	-0.788579642772675	0.296879708766937	-0.59862494468689	0.952139282226563	-0.171400466918945	0.2685478515625	3.32580375671387	2.09760546684265	-2.62295079231262	-0.609861671924591	-0.104991219937801	-0.792482852935791	1.00245776367188	0.0600286865234375	0.0810840682983398	1.66200804710388	-2.97355008125305	0.96239697933197	-0.92820805311203	0.53612744808197	0.0053784404881298	0.964855407714844	0.112355796813965	-0.210489791870117	-1.13967788219452	0.519888639450073	-0.176800563931465	-0.754884541034698	-0.520514965057373	0.700184464454651	0.980938232421875	0.173820693969727	-0.1137548828125	0.609009385108948	-0.258810311555862	1.05239033699036	-0.933117508888245	-0.653317451477051	-0.583994507789612	-0.512287658691406	-0.235349563598633	0.823638122558594	-0.183615356683731	-0.167376175522804	0.358169227838516	0.360344350337982	1.21534526348114	-0.773439168930054	0.973168640136719	-0.130375686645508	-0.211410842895508	1.92452454566956	-1.48714196681976	1.74474895000458	-0.897462904453278	0.261228889226913	-0.578121721744537	0.99856591796875	0.0166343154907227	-0.155236236572266	-0.267402172088623	0.60743510723114	0.612211287021637	-0.800772070884705	-0.763672471046448	0.613783240318298	-0.487835754394531	0.133834945678711	0.865269470214844	0.442924648523331	0.0	-0.0839949399232864	0.203134953975677	0.895510315895081	-1.16846263408661	0.981920349121094	-0.0547843017578125	-0.210922485351562	-0.870792150497437	0.349449276924133	-1.30658185482025	-0.864250540733337	0.0566466487944126	1.09326338768005	0.971142822265625	0.195839370727539	-0.190951538085938	-0.264982044696808	-0.522770345211029	-0.259418666362762	-1.11181616783142	0.195806190371513	-0.778814315795898	-0.148411148071289	0.956016845703125	0.290525177001953	-2.18199014663696	0.265913277864456	-0.261694699525833	0.593743324279785	-0.603527665138245	-0.600094497203827
0.968272583007812	-0.116208190917969	-0.227537231445312	-25.702787399292	3.58545446395874	7.43406057357788	-0.885978937149048	0.567148983478546	-0.0473680794239044	0.977996643066406	0.0800814056396484	0.238277755737305	1.48883104324341	1.22451341152191	-1.92437779903412	-0.820314049720764	-0.588379919528961	-0.231438010931015	0.98487353515625	0.0795901565551758	0.195801422119141	0.265553057193756	-0.700558185577393	0.177067399024963	-0.998299539089203	-0.144538730382919	0.337651550769806	0.946263366699219	0.230936798095703	0.235844757080078	-0.704010963439941	-0.876051306724548	1.39530229568481	-0.908950984477997	-0.597164630889893	0.221683114767075	0.994153259277344	-0.111800712585449	0.0688402252197266	0.0914714783430099	2.44929337501526	0.960753381252289	-0.786124765872955	0.298093199729919	-0.592286765575409	0.952654418945313	-0.162110916137695	0.265636444091797	3.49913573265076	2.53479075431824	-2.62295079231262	-0.612542569637299	-0.102304220199585	-0.79100489616394	0.999990173339844	0.0595401496887207	0.0908027267456055	1.66200804710388	-3.23477792739868	0.613812267780304	-0.92820805311203	0.532477080821991	-0.0053784404881298	0.968685729980469	0.115760520935059	-0.199672714233398	-1.13967788219452	0.0	-0.265200853347778	-0.754884541034698	-0.520752370357513	0.700184464454651	0.975171203613281	0.179686996459961	-0.1137548828125	0.350180387496948	0.258810311555862	1.57408809661865	-0.931650578975677	-0.654534339904785	-0.583994507789612	-0.510142913818359	-0.227951873779297	0.838468505859375	-0.0816068276762962	-0.0836880877614021	0.0	0.357903450727463	1.21167302131653	-0.767821371555328	0.975571533203125	-0.122532096862793	-0.211873443603516	1.30829751491547	-1.40216243267059	1.3108217716217	-0.896239399909973	0.263915002346039	-0.571298539638519	0.997101379394531	0.0151772956848145	-0.149913238525391	-0.346049845218658	0.522394180297852	0.353934645652771	-0.803463459014893	-0.76757425069809	0.609633147716522	-0.502998931884766	0.127402076721191	0.864114196777344	0.615173101425171	0.174569875001907	0.611963152885437	0.204349398612976	0.890630185604095	-1.16308677196503	0.971743896484375	-0.0648983306884766	-0.212908569335937	0.0	0.349449276924133	-1.57938456535339	-0.863040506839752	0.0578547529876232	1.1054790019989	0.96775146484375	0.188998504638672	-0.178689361572266	-0.614276528358459	-0.876905143260956	0.610396862030029	-1.11426329612732	0.195806190371513	-0.77442330121994	-0.1518291015625	0.956505676269531	0.293450256347656	-1.57103288173676	0.0	-0.874298214912415	0.59886759519577	-0.600817322731018	-0.597653150558472
0.973660278320313	-0.11327758026123	-0.233381652832031	-25.5310840606689	3.23556232452393	7.17078065872192	-0.885741412639618	0.567871868610382	-0.046380877494812	0.978537841796875	0.0722610931396484	0.242191467285156	1.92183768749237	1.13574755191803	-1.48701918125153	-0.820314049720764	-0.585938572883606	-0.228522926568985	0.979957214355469	0.07322998046875	0.188005493164063	0.265553057193756	-0.0865858495235443	0.789214670658112	-1.00343370437622	-0.148431807756424	0.337885200977325	0.94774951171875	0.234385955810547	0.228999740600586	-1.39684724807739	-0.963656485080719	0.703936278820038	-0.909173190593719	-0.597164630889893	0.221683114767075	0.995621337890625	-0.119135971069336	0.0664082794189453	0.345558911561966	2.27408313751221	1.48668301105499	-0.783699870109558	0.299318313598633	-0.585948586463928	0.952139282226563	-0.166506866455078	0.262212615966797	4.10579681396484	2.53479075431824	-2.62295079231262	-0.615223526954651	-0.0996172204613686	-0.789552450180054	0.995583801269531	0.0552044067382813	0.0971865463256836	1.57135307788849	-2.53446507453918	0.613812267780304	-0.92820805311203	0.528807163238525	-0.0161184072494507	0.96926025390625	0.114787742614746	-0.200204696655273	-1.05420207977295	0.0	-0.265200853347778	-0.754884541034698	-0.520989716053009	0.700184464454651	0.98201953125	0.174330810546875	-0.11964591217041	0.0	-0.435891032218933	1.48414015769958	-0.93018364906311	-0.655751168727875	-0.583994507789612	-0.51718994140625	-0.231392654418945	0.827622436523437	0.693658053874969	-0.523050546646118	0.358169227838516	0.355462580919266	1.20800089836121	-0.762203574180603	0.972688049316406	-0.129897415161133	-0.205512619018555	1.13765001296997	-0.786060750484467	1.74474895000458	-0.895015954971313	0.266601115465164	-0.564456284046173	0.990266906738281	0.00971346950531	-0.155236236572266	-0.440427094697952	0.704624712467194	0.698303520679474	-0.806154906749725	-0.771476089954376	0.605483055114746	-0.49620166015625	0.128971069335937	0.868735168457031	-0.258372694253922	-0.174569875001907	-0.431973993778229	0.205563858151436	0.885750114917755	-1.15771079063416	0.977589965820313	-0.0619484024047852	-0.213405090332031	-0.529305040836334	0.174724638462067	-2.18242239952087	-0.861830532550812	0.0590964145958424	1.11765909194946	0.970658325195312	0.188043975830078	-0.189006500244141	-1.22855305671692	-0.784155547618866	0.518837332725525	-1.11671054363251	0.195806190371513	-0.770032286643982	-0.154287628173828	0.947299865722656	0.286608551025391	-1.9201512336731	0.177275523543358	-0.523389399051666	0.603991806507111	-0.598136425018311	-0.595211863517761
0.976117858886719	-0.119635116577148	-0.228524459838867	-25.702787399292	3.75851941108704	7.78350448608398	-0.880873262882233	0.567624032497406	-0.0498008280992508	0.982935302734375	0.0825196075439453	0.234384872436523	1.66084730625153	1.57274854183197	-1.74943435192108	-0.821544528007507	-0.585938572883606	-0.231438010931015	0.979957214355469	0.07322998046875	0.182633895874023	-0.43275311589241	-0.787144064903259	0.349075734615326	-1.00585734844208	-0.144769683480263	0.337885200977325	0.9428388671875	0.227539901733398	0.235844757080078	-1.30744898319244	-0.438025653362274	1.39530229568481	-0.910411059856415	-0.594736635684967	0.220217868685722	0.989259582519531	-0.121084953308105	0.0688402252197266	0.609809815883636	1.74845242500305	1.48668301105499	-0.783699870109558	0.299318313598633	-0.586170554161072	0.955573486328125	-0.167004516601563	0.2685478515625	3.93246507644653	2.00928544998169	-2.44526696205139	-0.616460859775543	-0.104484654963017	-0.789297640323639	1.00051898193359	0.060517219543457	0.0947092437744141	1.05159783363342	-1.92308104038239	0.96239697933197	-0.92820805311203	0.533693909645081	-0.0119577273726463	0.975005737304688	0.119165245056152	-0.203573959350586	-0.356149345636368	0.519888639450073	0.0	-0.751207411289215	-0.518314063549042	0.694324254989624	0.986344848632812	0.174840927124023	-0.121056434631348	0.0913514047861099	0.531242191791534	1.74498903751373	-0.930406868457794	-0.655520975589752	-0.584224283695221	-0.512594055175781	-0.230016342163086	0.834926940917969	0.795666575431824	-0.355674386024475	-0.358169227838516	0.359123885631561	1.21167302131653	-0.762458920478821	0.973649230957031	-0.124062553405762	-0.198689178466797	0.0853237509727478	-0.520499706268311	1.74474895000458	-0.895015954971313	0.266601115465164	-0.564208507537842	0.987337890625	0.00971346950531	-0.149370071411133	-0.267402172088623	0.60743510723114	0.440026849508286	-0.804700911045074	-0.766605734825134	0.601332902908325	-0.491234405517578	0.136188430786133	0.851695434570312	0.52904886007309	-0.174569875001907	0.263984113931656	0.205563858151436	0.885750114917755	-1.15771079063416	0.978455993652344	-0.0589984817504883	-0.207049606323242	-0.700048565864563	0.5241739153862	-0.703544020652771	-0.8620725274086	0.0590964145958424	1.11765909194946	0.968720458984375	0.191384857177734	-0.180211563110352	0.0	-0.345702975988388	0.961375057697296	-1.11546969413757	0.195806190371513	-0.771723449230194	-0.148950836181641	0.948277465820312	0.292458709716797	-1.13463485240936	-0.177275523543358	-0.261694699525833	0.602781593799591	-0.599609434604645	-0.596441984176636
0.979047973632812	-0.118169815063477	-0.220705581665039	-26.1452560424805	4.37177133560181	7.86966848373413	-0.875975370407104	0.567376136779785	-0.0532207787036896	0.981446960449219	0.0756745758056641	0.233406448364258	1.39985704421997	1.3110032081604	-1.22460401058197	-0.822745025157928	-0.585938572883606	-0.234369471669197	0.983903198242188	0.0717719192504883	0.178213043212891	-0.354070723056793	-0.263693273067474	0.526143133640289	-1.00831282138824	-0.14110754430294	0.337885200977325	0.950204772949219	0.233863357543945	0.228513122558594	-1.66504180431366	-0.262815415859222	0.791928350925446	-0.91161721944809	-0.592279076576233	0.21875262260437	0.987302062988281	-0.118639869689941	0.0659218902587891	0.701281309127808	2.18647813796997	1.92150676250458	-0.783699870109558	0.299318313598633	-0.586417198181152	0.955573486328125	-0.163562408447266	0.261234405517578	4.10579681396484	2.62311100959778	-2.96985721588135	-0.617668747901917	-0.109374113380909	-0.789068281650543	0.990207946777344	0.0576470794677734	0.0937564392089844	0.960942804813385	-2.10093832015991	0.788104653358459	-0.92820805311203	0.538580596446991	-0.007813960313797	0.976537841796875	0.112355796813965	-0.216341659545898	0.0	0.519888639450073	-0.35360112786293	-0.747559189796448	-0.515616893768311	0.688464045524597	0.980397583007813	0.171397674560547	-0.1137548828125	-0.350180387496948	0.177080735564232	1.3132392168045	-0.930661976337433	-0.655257880687714	-0.584479510784149	-0.511368469238281	-0.230532455444336	0.828065124511719	0.0816068276762962	-1.23439931869507	0.0	0.362785220146179	1.21534526348114	-0.762685894966125	0.973649230957031	-0.125019088745117	-0.20747868347168	0.265451669692993	-0.966642260551453	1.40122318267822	-0.895015954971313	0.266601115465164	-0.56396073102951	0.988314208984375	0.0087421226501464	-0.156213943481445	-0.786476969718933	0.352312356233597	0.353934645652771	-0.803215980529785	-0.761707723140717	0.597182810306549	-0.491234405517578	0.134305633544922	0.871045593261719	-0.615173101425171	0.610994577407837	-0.0839949399232864	0.205563858151436	0.885750114917755	-1.15771079063416	0.97650732421875	-0.0655304565429688	-0.220257095336914	-0.700048565864563	0.349449276924133	-2.2685706615448	-0.862314522266388	0.0590964145958424	1.11765909194946	0.966298034667969	0.18549853515625	-0.190951538085938	-0.614276528358459	-0.961222946643829	0.350978195667267	-1.11426329612732	0.195806190371513	-0.77344423532486	-0.152848495483398	0.943389465332031	0.28269189453125	-1.39647364616394	-0.433340162038803	-0.612603545188904	0.601571321487427	-0.601082444190979	-0.597653150558472
0.983395935058594	-0.125000030517578	-0.231446670532227	-25.7952442169189	4.72166347503662	6.99366521835327	-0.875975370407104	0.565909743309021	-0.0522512048482895	0.981920532226563	0.0820319671630859	0.234384872436523	1.39985704421997	1.04925775527954	-0.962188899517059	-0.822504937648773	-0.586184620857239	-0.234369471669197	0.989272277832031	0.0776293106079102	0.172841461181641	0.0	0.0	0.435079902410507	-1.00585734844208	-0.14110754430294	0.336433172225952	0.949687866210937	0.231459396362305	0.227053283691406	-1.66504180431366	-0.438025653362274	1.04333412647247	-0.907713115215302	-0.595950663089752	0.218508407473564	0.99023828125	-0.123530044555664	0.0800920181274414	1.74812150001526	1.39803194999695	1.92150676250458	-0.784897327423096	0.299318313598633	-0.587896943092346	0.956031433105469	-0.163106216430664	0.268058715820312	3.32580375671387	2.4464704990387	-1.13379168510437	-0.617668747901917	-0.109616383910179	-0.789297640323639	0.996112548828125	0.0595401496887207	0.0971865463256836	0.701065182685852	-2.62339377403259	0.700958430767059	-0.92820805311203	0.538580596446991	-0.007813960313797	0.979985168457031	0.12013801574707	-0.213415725708008	0.0	0.259944319725037	0.0884002819657326	-0.747559189796448	-0.516846835613251	0.691394150257111	0.984903076171875	0.16846452331543	-0.113257049560547	-1.14189255237579	0.435891032218933	1.66403591632843	-0.92919510602951	-0.654040992259979	-0.585704803466797	-0.511674865722656	-0.230016342163086	0.830057250976562	0.428435832262039	-1.1297892332077	-0.170556768774986	0.362785220146179	1.21534526348114	-0.762685894966125	0.984862670898437	-0.121097297668457	-0.206553482055664	0.265451669692993	-0.350540608167648	1.13905882835388	-0.893792450428009	0.267831385135651	-0.554450213909149	0.988314208984375	0.0122632551193237	-0.154801712036133	0.346049845218658	0.959747433662415	0.784395694732666	-0.803215980529785	-0.76049017906189	0.598643660545349	-0.487312896728516	0.137757415771484	0.865269470214844	-0.615173101425171	-0.349139750003815	0.431973993778229	0.204349398612976	0.888175547122955	-1.1564873456955	0.986900329589844	-0.0497272911071777	-0.213901611328125	-0.614676833152771	0.0903748124837875	-0.703544020652771	-0.8659747838974	0.0566466487944126	1.12476122379303	0.970658325195312	0.193771194458008	-0.185539276123047	0.0	-0.784155547618866	0.442537724971771	-1.11546969413757	0.19459193944931	-0.773206889629364	-0.154767349243164	0.941434204101563	0.292012512207031	-2.09471035003662	0.0886377617716789	-0.612603545188904	0.601571321487427	-0.600817322731018	-0.597653150558472
