head_ACCEL_x	head_ACCEL_y	head_ACCEL_z	head_GYRO_x	head_GYRO_y	head_GYRO_z	head_MAGN_x	head_MAGN_y	head_MAGN_z	sternum_ACCEL_x	sternum_ACCEL_y	sternum_ACCEL_z	sternum_GYRO_x	sternum_GYRO_y	sternum_GYRO_z	sternum_MAGN_x	sternum_MAGN_y	sternum_MAGN_z	left_upper_arm_ACCEL_x	left_upper_arm_ACCEL_y	left_upper_arm_ACCEL_z	left_upper_arm_GYRO_x	left_upper_arm_GYRO_y	left_upper_arm_GYRO_z	left_upper_arm_MAGN_x	left_upper_arm_MAGN_y	left_upper_arm_MAGN_z	left_fore_arm_ACCEL_x	left_fore_arm_ACCEL_y	left_fore_arm_ACCEL_z	left_fore_arm_GYRO_x	left_fore_arm_GYRO_y	left_fore_arm_GYRO_z	left_fore_arm_MAGN_x	left_fore_arm_MAGN_y	left_fore_arm_MAGN_z	right_upper_arm_ACCEL_x	right_upper_arm_ACCEL_y	right_upper_arm_ACCEL_z	right_upper_arm_GYRO_x	right_upper_arm_GYRO_y	right_upper_arm_GYRO_z	right_upper_arm_MAGN_x	right_upper_arm_MAGN_y	right_upper_arm_MAGN_z	right_fore_arm_ACCEL_x	right_fore_arm_ACCEL_y	right_fore_arm_ACCEL_z	right_fore_arm_GYRO_x	right_fore_arm_GYRO_y	right_fore_arm_GYRO_z	right_fore_arm_MAGN_x	right_fore_arm_MAGN_y	right_fore_arm_MAGN_z	pelvis_ACCEL_x	pelvis_ACCEL_y	pelvis_ACCEL_z	pelvis_GYRO_x	pelvis_GYRO_y	pelvis_GYRO_z	pelvis_MAGN_x	pelvis_MAGN_y	pelvis_MAGN_z	left_thigh_ACCEL_x	left_thigh_ACCEL_y	left_thigh_ACCEL_z	left_thigh_GYRO_x	left_thigh_GYRO_y	left_thigh_GYRO_z	left_thigh_MAGN_x	left_thigh_MAGN_y	left_thigh_MAGN_z	left_shank_ACCEL_x	left_shank_ACCEL_y	left_shank_ACCEL_z	left_shank_GYRO_x	left_shank_GYRO_y	left_shank_GYRO_z	left_shank_MAGN_x	left_shank_MAGN_y	left_shank_MAGN_z	left_foot_ACCEL_x	left_foot_ACCEL_y	left_foot_ACCEL_z	left_foot_GYRO_x	left_foot_GYRO_y	left_foot_GYRO_z	left_foot_MAGN_x	left_foot_MAGN_y	left_foot_MAGN_z	right_thigh_ACCEL_x	right_thigh_ACCEL_y	right_thigh_ACCEL_z	right_thigh_GYRO_x	right_thigh_GYRO_y	right_thigh_GYRO_z	right_thigh_MAGN_x	right_thigh_MAGN_y	right_thigh_MAGN_z	right_shank_ACCEL_x	right_shank_ACCEL_y	right_shank_ACCEL_z	right_shank_GYRO_x	right_shank_GYRO_y	right_shank_GYRO_z	right_shank_MAGN_x	right_shank_MAGN_y	right_shank_MAGN_z	right_foot_ACCEL_x	right_foot_ACCEL_y	right_foot_ACCEL_z	right_foot_GYRO_x	right_foot_GYRO_y	right_foot_GYRO_z	right_foot_MAGN_x	right_foot_MAGN_y	right_foot_MAGN_z	left_ankle_ACCEL_x	left_ankle_ACCEL_y	left_ankle_ACCEL_z	left_ankle_GYRO_x	left_ankle_GYRO_y	left_ankle_GYRO_z	left_ankle_MAGN_x	left_ankle_MAGN_y	left_ankle_MAGN_z	right_ankle_ACCEL_x	right_ankle_ACCEL_y	right_ankle_ACCEL_z	right_ankle_GYRO_x	right_ankle_GYRO_y	right_ankle_GYRO_z	right_ankle_MAGN_x	right_ankle_MAGN_y	right_ankle_MAGN_z
0.877931945800781	0.0459041442871094	-0.509265655517578	-1.13562214374542	-0.961020171642303	-1.57391464710236	-0.749019622802734	0.457525610923767	0.563467979431152	0.93797412109375	0.164055770874023	0.300786743164063	0.523477494716644	1.04853987693787	-0.0867432802915573	-0.706048727035522	-0.651365995407104	-0.316405564546585	1.00683483886719	0.0288216323852539	0.0449297752380371	-0.609169483184814	-0.787837862968445	1.13502442836761	-0.917491972446442	-0.292966246604919	0.420406639575958	0.9316376953125	0.324719787597656	0.181156021118164	-1.31434905529022	-0.610994577407837	0.869946300983429	-0.741223931312561	-0.742683172225952	0.198727950453758	0.998556701660156	-0.0419829483032227	0.0395469818115234	0.177731797099113	-0.436958342790604	0.610650360584259	-0.799313426017761	-0.0258830804377794	-0.575193285942078	0.946298156738281	-0.258785186767578	0.183103912353516	0.962375640869141	-1.74902880191803	-0.0885070115327835	-0.686022520065308	-0.172853752970695	-0.632315456867218	0.979502319335937	-0.0136487474441528	0.201648818969727	0.874060809612274	-0.263247668743134	-0.0878212675452232	-0.854501664638519	0.592287361621857	-0.0629823356866837	0.987833435058594	-0.0287892074584961	-0.181630462646484	-0.615183770656586	-0.0911913067102432	-0.174129605293274	-0.791513025760651	-0.470221340656281	0.60889732837677	0.986264770507812	0.0590993003845215	-0.16647770690918	0.26048332452774	0.170594125986099	0.958986937999725	-0.920401990413666	-0.680173993110657	-0.383300453424454	-0.514551513671875	-0.146498062133789	0.84232177734375	0.0941557735204697	-1.0589462518692	0.265627771615982	0.173348948359489	1.12450301647186	-0.888177692890167	0.995552673339844	-0.0795904235839844	-0.132370788574219	1.4837691783905	-0.260349899530411	1.13708961009979	-0.767591595649719	0.274908572435379	-0.630854904651642	0.973610778808594	0.0087625970840454	-0.235866134643555	0.616229712963104	0.0898251459002495	-0.433318823575974	-0.680163621902466	-0.875964879989624	0.386215835809708	-0.514696533203125	0.0258158264160156	0.861407287597656	0.349278509616852	0.0	0.174231007695198	-0.222157016396523	1.04003143310547	-1.1162257194519	0.978465759277344	0.109397880554199	-0.177211151123047	-0.0860788747668266	0.352341681718826	-0.518522441387177	-0.811030328273773	-0.430656582117081	1.00829458236694	0.99262060546875	-0.0175567417144775	-0.147464492797852	0.0	-0.261094361543655	0.431451022624969	-0.895987391471863	0.475111871957779	-0.934572517871857
0.873036315917969	0.0459041442871094	-0.503403778076172	-0.787837862968445	-0.874311566352844	-2.09855270385742	-0.749019622802734	0.455081641674042	0.546871662139893	0.936987731933594	0.171377227783203	0.293940643310547	-0.873313665390015	0.525492012500763	0.0	-0.706048727035522	-0.65357118844986	-0.310551911592484	0.996065612792969	0.0273511409759521	0.0322192306518555	-1.30768382549286	-0.436766237020493	0.873788595199585	-0.917491972446442	-0.292966246604919	0.420406639575958	0.926283508300781	0.322264953613281	0.181634002685547	-0.611709654331207	-0.700536847114563	0.785073518753052	-0.741223931312561	-0.742683172225952	0.198727950453758	0.992690185546875	-0.0415117607116699	0.038570629119873	0.177731797099113	-0.174292370676994	0.437772184610367	-0.798087358474731	-0.0244086533784866	-0.569093406200409	0.944822692871094	-0.252941741943359	0.184084823608398	0.697105467319489	-2.27282643318176	-0.354028046131134	-0.682123959064484	-0.177491873502731	-0.629876315593719	0.979984619140625	-0.0117142791748047	0.195302963256836	0.262516558170319	0.0	-0.175642535090446	-0.855709493160248	0.592287361621857	-0.0668877512216568	0.988336303710938	-0.0312973575592041	-0.177690765380859	0.253310948610306	1.2234833240509	-0.264419049024582	-0.791513025760651	-0.470221340656281	0.60889732837677	0.984351196289063	0.0576156349182129	-0.163095260620117	0.089112713932991	0.957951664924622	0.3511783182621	-0.917964994907379	-0.678953289985657	-0.388920396566391	-0.510407043457031	-0.139166107177734	0.849158081054687	-0.349721431732178	0.0814574062824249	0.0	0.172109723091125	1.12330174446106	-0.887949764728546	0.992208740234375	-0.0766388626098633	-0.119113922119141	1.4837691783905	0.177259504795074	-0.348707467317581	-0.767591595649719	0.274908572435379	-0.630854904651642	0.975609985351563	0.0146902370452881	-0.239229049682617	-0.0909191370010376	0.527722716331482	0.0	-0.680163621902466	-0.877183973789215	0.398692518472672	-0.517969665527344	0.0293540363311768	0.860282287597656	-0.43310534954071	0.180997774004936	0.696924030780792	-0.225844413042068	1.03981184959412	-1.11473000049591	0.978085693359375	0.108398162841797	-0.179200164794922	0.0860788747668266	-0.173374488949776	-0.345681637525558	-0.813473701477051	-0.428216695785522	1.00585043430328	0.992162658691406	-0.0175567417144775	-0.15280224609375	0.177627727389336	-0.261094361543655	0.431451022624969	-0.895987391471863	0.475111871957779	-0.934572517871857
0.877463195800781	0.0488304786682129	-0.497063354492188	-0.088720478117466	-0.699087977409363	-0.962439715862274	-0.749019622802734	0.452637642621994	0.530275285243988	0.93846728515625	0.167970428466797	0.288566833496094	-0.173641309142113	0.437502682209015	1.39818406105042	-0.706048727035522	-0.655755698680878	-0.304687261581421	1.00294091796875	0.0336742553710938	0.0459041023254395	-1.30768382549286	-0.873532474040985	0.6125528216362	-0.917491972446442	-0.292966246604919	0.420406639575958	0.9350849609375	0.329595367431641	0.182133712768555	-1.22341930866241	-0.784811973571777	0.785073518753052	-0.741223931312561	-0.742683172225952	0.198727950453758	0.998556701660156	-0.0380956382751465	0.0371107482910156	-0.0855745673179626	-0.525331974029541	-0.524211287498474	-0.796861290931702	-0.0229457467794418	-0.56299352645874	0.941422668457031	-0.262691741943359	0.187496688842773	0.265270203351974	-2.27282643318176	0.0	-0.67822539806366	-0.182130008935928	-0.627437233924866	0.9765283203125	-0.017571418762207	0.193361877441406	0.960571944713593	0.874466359615326	0.0878212675452232	-0.856946885585785	0.592287361621857	-0.0708081871271133	0.980960632324219	-0.0331512069702148	-0.178700942993164	0.0904681980609894	0.524349987506866	0.174129605293274	-0.791513025760651	-0.470221340656281	0.60889732837677	0.980523986816406	0.0508155059814453	-0.16647770690918	-0.438708752393723	0.957951664924622	0.263383746147156	-0.915527999401093	-0.677732586860657	-0.394540309906006	-0.508175415039062	-0.141140090942383	0.8539228515625	0.0	0.0814574062824249	0.0	0.170905917882919	1.12206506729126	-0.887693285942078	0.989801086425781	-0.0785726470947266	-0.125940216064453	1.83745837211609	-0.260349899530411	0.174353733658791	-0.767591595649719	0.274908572435379	-0.630854904651642	0.969279174804688	0.0058417315483093	-0.240745666503906	0.353574424982071	0.696144878864288	0.174994140863419	-0.680163621902466	-0.878430187702179	0.41113618016243	-0.513059997558594	0.0307955284118652	0.863844909667969	-0.181624829769135	0.784323692321777	0.0	-0.229495316743851	1.03955578804016	-1.11327087879181	0.978972473144531	0.110397605895996	-0.172380706787109	0.0	0.352341681718826	-0.518522441387177	-0.815917134284973	-0.425776779651642	1.00340628623962	0.991704711914063	-0.0210024566650391	-0.164047134399414	0.0	0.0	0.0	-0.895987391471863	0.475111871957779	-0.934572517871857
0.870119750976562	0.0463845863342285	-0.505377655029297	-1.39823472499847	-0.961020171642303	-1.66075122356415	-0.746339857578278	0.455317199230194	0.528806626796722	0.937480895996094	0.164055770874023	0.298835968017578	-0.263015508651733	0.261523932218552	0.349913567304611	-0.707510948181152	-0.656002998352051	-0.30883863568306	0.992171630859375	0.0248880672454834	0.0424718132019043	-0.787859201431274	0.0	0.52247154712677	-0.920150637626648	-0.298090845346451	0.4233438372612	0.927750427246094	0.323253723144531	0.183589401245117	-0.611709654331207	-0.874354302883148	0.519845962524414	-0.738764703273773	-0.748764216899872	0.201663568615913	0.985828552246094	-0.0444331321716309	0.0356415672302246	0.177731797099113	-0.611250698566437	-0.0864390954375267	-0.795401692390442	-0.0202618315815926	-0.5815349817276	0.944822692871094	-0.262691741943359	0.184084823608398	0.351637244224548	-1.57594788074493	0.265521049499512	-0.67822539806366	-0.17847515642643	-0.630120277404785	0.9775732421875	-0.0170878028869629	0.203141967773437	-0.262516558170319	0.962215602397919	0.0878212675452232	-0.856946885585785	0.592287361621857	-0.0710485205054283	0.984816101074219	-0.0293344573974609	-0.178700942993164	-0.180936396121979	0.440757989883423	-0.348259210586548	-0.791513025760651	-0.470221340656281	0.614489436149597	0.995577575683594	0.0644157638549805	-0.163587265014648	-0.438708752393723	0.524905025959015	0.0877945795655251	-0.915527999401093	-0.677732586860657	-0.394540309906006	-0.509769439697266	-0.146498062133789	0.840871643066406	1.14332008361816	0.0	0.0850008875131607	0.172109723091125	1.11962723731995	-0.886468172073364	0.981909423828125	-0.0766388626098633	-0.124555168151855	1.92372405529022	-0.437609404325485	-0.439674645662308	-0.76904296875	0.278810113668442	-0.615471422672272	0.971611572265625	0.0063571786880493	-0.238767471313477	-0.525310575962067	0.527722716331482	0.258324682712555	-0.680163621902466	-0.878430187702179	0.41113618016243	-0.519060668945313	0.0258158264160156	0.857844665527344	0.0838268399238586	0.0	0.174231007695198	-0.229495316743851	1.03955578804016	-1.11327087879181	0.97415869140625	0.111397323608398	-0.176737579345703	-0.258236616849899	0.0	-0.604942858219147	-0.815917134284973	-0.425776779651642	1.0046284198761	0.995139404296875	-0.0170644950866699	-0.151378845214844	-0.438148379325867	0.0	0.60672801733017	-0.897206902503967	0.476325243711472	-0.926028609275818
0.871578002929687	0.0488304786682129	-0.500981262207031	-0.787837862968445	0.0	-1.66075122356415	-0.743660092353821	0.458011478185654	0.527337908744812	0.945803405761719	0.173831832885742	0.299314483642578	0.436656832695007	-0.261523932218552	0.524870336055756	-0.708973169326782	-0.656250298023224	-0.312990009784698	0.998560180664062	0.0268732318878174	0.0414974861145019	-1.8356306552887	0.0	0.261235773563385	-0.922840595245361	-0.303229838609695	0.426264882087708	0.9350849609375	0.328129272460937	0.17774494934082	-1.397012591362	-1.22198915481567	0.0	-0.736336588859558	-0.754875957965851	0.204584285616875	0.987818969726562	-0.0380956382751465	0.0390634536743164	-0.789919078350067	0.088373601436615	0.348544746637344	-0.793942034244537	-0.0175779163837433	-0.600094974040985	0.941422668457031	-0.264169006347656	0.189458526611328	0.0	-2.35936689376831	0.265521049499512	-0.67822539806366	-0.174801766872406	-0.63280326128006	0.9765283203125	-0.0170878028869629	0.194332427978516	0.698055386543274	0.435720264911652	0.0878212675452232	-0.856946885585785	0.592287361621857	-0.0712888538837433	0.98682763671875	-0.0303159084320068	-0.176781600952148	0.343779146671295	-0.440757989883423	-0.264419049024582	-0.791513025760651	-0.470221340656281	0.62010931968689	0.988305969238281	0.0649103164672852	-0.169429656982422	-1.22701358795166	0.787357568740845	0.7023566365242	-0.915527999401093	-0.677732586860657	-0.394540309906006	-0.512638671875	-0.143114074707031	0.852058349609375	0.174860715866089	-0.875667095184326	-0.520630419254303	0.173348948359489	1.11718928813934	-0.885242998600006	0.992609985351563	-0.0693108444213867	-0.126929534912109	1.05244100093842	-0.437609404325485	-0.265320897102356	-0.770494282245636	0.282711654901505	-0.600087881088257	0.973610778808594	0.0038658518791198	-0.238305892944336	0.616229712963104	0.0898251459002495	0.0	-0.680163621902466	-0.878430187702179	0.41113618016243	-0.5108779296875	0.0356441879272461	0.8599072265625	-1.13166236877441	0.341884702444077	0.174231007695198	-0.229495316743851	1.03955578804016	-1.11327087879181	0.988726684570313	0.118109725952148	-0.181189163208008	-0.964083433151245	0.872465133666992	-0.518522441387177	-0.815917134284973	-0.425776779651642	1.00585043430328	0.98632373046875	-0.0264171524047852	-0.158211181640625	0.355255454778671	0.348125815391541	0.431451022624969	-0.898426413536072	0.477538615465164	-0.917484760284424
0.867203186035156	0.0449286994934082	-0.493175384521484	-0.173892140388489	0.0	-1.57391464710236	-0.743906199932098	0.457761198282242	0.527594923973083	0.933597106933594	0.167483734130859	0.299314483642578	-0.0868206545710564	0.611037254333496	0.874783933162689	-0.707510948181152	-0.655034422874451	-0.315922349691391	0.994605346679687	0.0234543380737305	0.0302705764770508	-0.958426654338837	-0.262612611055374	1.2251056432724	-0.914051353931427	-0.2993144094944	0.423101752996445	0.927750427246094	0.323731048583984	0.183589401245117	-1.13248944282532	-0.173817411065102	0.615327894687653	-0.741223931312561	-0.748764216899872	0.201901987195015	0.995099670410156	-0.0419829483032227	0.0410161628723145	0.263306379318237	0.262665987014771	-0.262105643749237	-0.795168161392212	-0.0178198143839836	-0.584715068340302	0.941871704101563	-0.263184173583984	0.185051513671875	0.172734096646309	-2.01320505142212	0.69920539855957	-0.67822539806366	-0.173577293753624	-0.63280326128006	0.98239599609375	-0.0102634286880493	0.196273513793945	0.960571944713593	0.611218690872192	0.263463795185089	-0.855709493160248	0.591303884983063	-0.0617656484246254	0.989677307128906	-0.025844856262207	-0.18062028503418	0.0	0.615541338920593	-0.264419049024582	-0.793953657150269	-0.468986004590988	0.617438495159149	0.986775085449219	0.0586047477722168	-0.160635314941406	-0.178225427865982	0.695499181747437	0.526767492294312	-0.919439256191254	-0.676511883735657	-0.388660192489624	-0.517101989746094	-0.147908050537109	0.848122314453125	0.174860715866089	-0.2647365629673	-0.265627771615982	0.173348948359489	1.11718928813934	-0.885242998600006	0.985788391113281	-0.0761299743652344	-0.121587211608887	1.13870668411255	-0.260349899530411	0.0	-0.766612827777863	0.280279129743576	-0.600347876548767	0.966280395507813	-0.0097934913635253	-0.238767471313477	0.87888503074646	0.348072439432144	-0.349988281726837	-0.680163621902466	-0.874745786190033	0.405524969100952	-0.515242065429688	0.0263400058746338	0.865719970703125	0.181624829769135	0.0	0.0	-0.230700105428696	1.03831195831299	-1.11742949485779	0.981506042480469	0.109826332092285	-0.174843276977539	0.352923393249512	0.0	0.0	-0.815917134284973	-0.425776779651642	1.00585043430328	0.989300476074219	-0.0244481716156006	-0.157214797973633	-1.13681745529175	0.0	0.0808970630168915	-0.897206902503967	0.481445103883743	-0.913588047027588
0.867203186035156	0.043458251953125	-0.503912200927734	-1.13562214374542	0.0	-1.57391464710236	-0.744152307510376	0.457525610923767	0.527833580970764	0.93606298828125	0.171377227783203	0.296866790771484	-0.699672341346741	-0.0879893600940704	0.874783933162689	-0.706048727035522	-0.653818488121033	-0.318843692541122	1.00391436767578	0.0312479438781738	0.0390616645812988	-0.877204060554504	-0.699378848075867	0.52247154712677	-0.905262053012848	-0.295413374900818	0.419922471046448	0.926723571777344	0.320321563720703	0.184567092895508	-1.31434905529022	-1.22198915481567	-0.434973150491714	-0.746080160140991	-0.742683172225952	0.199219703674316	0.997090087890625	-0.0434671936035156	0.0375942764282227	0.177731797099113	-0.174292370676994	-0.348544746637344	-0.796394228935242	-0.0180617123842239	-0.569335162639618	0.950660461425781	-0.252941741943359	0.186529998779297	-0.438004314899445	-2.01320505142212	1.30990374088287	-0.67822539806366	-0.172371387481689	-0.63280326128006	0.972670104980469	-0.0151533336639404	0.191420791625977	2.09714937210083	1.04996478557587	-0.0878212675452232	-0.854501664638519	0.5903400182724	-0.0522424429655075	0.983810363769531	-0.0360955581665039	-0.179206039428711	0.0	-0.0911913067102432	-0.174129605293274	-0.796394288539886	-0.467775374650955	0.614739835262299	0.984861450195312	0.054153751373291	-0.163587265014648	0.178225427865982	0.695499181747437	0.263383746147156	-0.92335045337677	-0.675291180610657	-0.382806092500687	-0.515507934570313	-0.143114074707031	0.852472717285156	-0.0941557735204697	-0.529473125934601	-0.435629546642303	0.173348948359489	1.11718928813934	-0.885242998600006	0.990202392578125	-0.070837516784668	-0.129897491455078	0.871283113956451	0.0	0.439674645662308	-0.762697577476501	0.27783077955246	-0.600586175918579	0.982440551757813	0.0107384767532349	-0.233887939453125	0.0	0.258247286081314	-0.433318823575974	-0.680163621902466	-0.871088445186615	0.399913787841797	-0.516060363769531	0.0258158264160156	0.855032043457031	-0.349278509616852	0.442439019680023	0.0922399461269379	-0.231941416859627	1.03710472583771	-1.12158811092377	0.983912902832031	0.111825775146484	-0.173801422119141	0.525081157684326	0.525716185569763	-0.604942858219147	-0.815917134284973	-0.425776779651642	1.00585043430328	0.985407836914063	-0.0239559268951416	-0.148959060668945	-0.615776121616364	0.0	0.525830924510956	-0.895987391471863	0.485351592302322	-0.909662485122681
0.875015380859375	0.0439386978149414	-0.504869232177734	-1.22434258460999	-0.086708590388298	-1.39843213558197	-0.746585965156555	0.456303626298904	0.531982660293579	0.944817016601562	0.174318511962891	0.299314483642578	0.0868206545710564	0.437502682209015	0.0	-0.706301808357239	-0.653818488121033	-0.318843692541122	0.997099914550781	0.0229396667480469	0.0410103225708008	-0.787859201431274	0.262612611055374	0.175658538937569	-0.911361396312714	-0.294189810752869	0.420164555311203	0.935525024414062	0.327651947021484	0.193366348266602	-1.397012591362	-1.04817175865173	0.265227526426315	-0.746080160140991	-0.743911683559418	0.202155321836472	0.995099670410156	-0.0463885650634766	0.0351580390930176	0.3488809466362	-0.088373601436615	0.0	-0.796394228935242	-0.0180617123842239	-0.569335162639618	0.939433959960937	-0.270504852294922	0.184568176269531	-0.610738396644592	-2.44590735435486	1.2213968038559	-0.677971839904785	-0.175042942166328	-0.641360402107239	0.982878234863281	-0.0151533336639404	0.197244049072266	0.787549674510956	0.350996881723404	0.263463795185089	-0.854501664638519	0.591559588909149	-0.0617656484246254	0.994203308105469	-0.0238819561004639	-0.18647932434082	0.705651938915253	0.0	-0.264419049024582	-0.796394288539886	-0.467775374650955	0.614739835262299	0.986775085449219	0.0518046188354492	-0.163587265014648	0.527821481227875	0.0918583795428276	0.3511783182621	-0.918205738067627	-0.677732586860657	-0.384523302316666	-0.519014770507813	-0.149882034301758	0.840871643066406	-0.174860715866089	-0.2647365629673	-0.520630419254303	0.173348948359489	1.11962723731995	-0.886724591255188	0.991272399902344	-0.0732801895141602	-0.124555168151855	0.0	0.0	0.174353733658791	-0.762697577476501	0.279047071933746	-0.620108127593994	0.972111389160156	-0.0014604328870773	-0.242657913208008	0.0	0.696144878864288	0.874970734119415	-0.680163621902466	-0.874989569187164	0.388922423124313	-0.514151062011719	0.0273883647918701	0.851094421386719	-0.530903339385986	0.0	-0.266470938920975	-0.229495316743851	1.03955578804016	-1.12034785747528	0.984926330566406	0.107969711303711	-0.177211151123047	0.611160039901733	0.609607040882111	-1.74281167984009	-0.815917134284973	-0.423336893320084	1.00194668769836	0.993651062011719	-0.016080005645752	-0.150880661010742	-0.521041333675385	0.0	0.0	-0.900865435600281	0.482421725988388	-0.923084437847137
0.867203186035156	0.0439386978149414	-0.502925231933594	-1.0504504442215	1.04953515529633	-1.74939703941345	-0.749019622802734	0.455081641674042	0.536131739616394	0.93797412109375	0.169917175292969	0.297363708496094	-0.34983617067337	0.87500536441803	0.786570429801941	-0.706554889678955	-0.653818488121033	-0.318843692541122	0.990711364746094	0.0185649547576904	0.030757740020752	-0.609169483184814	-0.262612611055374	-0.175658538937569	-0.917491972446442	-0.292966246604919	0.420406639575958	0.919462341308594	0.321787628173828	0.182611709594727	-1.92605876922607	-0.700536847114563	0.869946300983429	-0.746080160140991	-0.745109438896179	0.205076038837433	0.997090087890625	-0.0415117607116699	0.0346652145385742	0.263306379318237	-0.436958342790604	0.0864390954375267	-0.796394228935242	-0.0180617123842239	-0.569335162639618	0.944822692871094	-0.264169006347656	0.181156295776367	-1.40037989616394	-2.27282643318176	0.610698401927948	-0.677749931812286	-0.177733063697815	-0.649897277355194	0.985369995117187	-0.0102634286880493	0.200230331420898	1.48560500144958	0.698967933654785	-0.0878212675452232	-0.854501664638519	0.592779099941254	-0.0712888538837433	0.987330505371094	-0.0307521076202393	-0.177286682128906	0.180936396121979	0.0	-0.174129605293274	-0.796394288539886	-0.467775374650955	0.614739835262299	0.987795654296875	0.0566265258789063	-0.169429656982422	0.527821481227875	0.170594125986099	0.614562094211578	-0.913091003894806	-0.680173993110657	-0.386240512132645	-0.505306182861328	-0.138602111816406	0.852058349609375	-0.0941557735204697	0.0814574062824249	0.0	0.173348948359489	1.12206506729126	-0.888177692890167	0.991272399902344	-0.0810153198242188	-0.127424194335937	1.39750361442566	-0.786589026451111	0.0	-0.762697577476501	0.280279129743576	-0.639651715755463	0.972111389160156	-0.0005154469013214	-0.249054061889648	0.262655287981033	0.179650291800499	0.349988281726837	-0.680163621902466	-0.878917813301086	0.37793105840683	-0.520970031738281	0.0243743343353271	0.861407287597656	-0.782383859157562	-0.180997774004936	0.0922399461269379	-0.227049216628075	1.04200685024261	-1.11914396286011	0.978465759277344	0.110397605895996	-0.179200164794922	0.0	0.525716185569763	-0.604942858219147	-0.815917134284973	-0.420896977186203	0.9980428814888	0.992162658691406	-0.0239559268951416	-0.155293197631836	0.0	0.261094361543655	0.701107919216156	-0.905779421329498	0.479491859674454	-0.93653529882431
0.869130187988281	0.0498059234619141	-0.497571807861328	-1.31306302547455	0.261932194232941	-1.04927635192871	-0.752683758735657	0.455081641674042	0.539069175720215	0.93556982421875	0.172858444213867	0.288566833496094	-0.523477494716644	1.57403194904327	1.04974067211151	-0.705317676067352	-0.655034422874451	-0.322017639875412	0.987790893554688	0.0170944633483887	0.0410103225708008	-0.698514342308044	0.436766237020493	0.351317077875137	-0.917491972446442	-0.292966246604919	0.420406639575958	0.928703918457031	0.322742279052734	0.190911254882812	-1.13248944282532	-0.173817411065102	0.0	-0.746080160140991	-0.745109438896179	0.205076038837433	0.995099670410156	-0.039556324005127	0.0434523963928223	0.0	-0.174292370676994	1.2240891456604	-0.797853827476501	-0.0192827209830284	-0.570804357528687	0.9384716796875	-0.267583160400391	0.178227767944336	-1.22147679328918	-2.44590735435486	1.30990374088287	-0.677971839904785	-0.177491873502731	-0.649653375148773	0.9775732421875	-0.0151533336639404	0.199707733154297	1.05006623268127	-0.087749220430851	-0.175642535090446	-0.853264272212982	0.591559588909149	-0.0659113973379135	0.992191772460937	-0.0263901062011719	-0.172336807250977	0.524715542793274	0.615541338920593	-0.522388815879822	-0.792718291282654	-0.469974279403687	0.617438495159149	0.989198974609375	0.054153751373291	-0.170905639648437	0.178225427865982	0.354310899972916	0.17558915913105	-0.919439256191254	-0.680412173271179	-0.387203186750412	-0.51646435546875	-0.14551106262207	0.844186218261719	-0.349721431732178	0.610930562019348	0.0	0.173348948359489	1.11962723731995	-0.886724591255188	0.992609985351563	-0.0722624053955078	-0.125940216064453	0.258796960115433	-0.526239156723022	0.265320897102356	-0.762697577476501	0.280279129743576	-0.639651715755463	0.970278747558594	-0.0043812985420227	-0.242196334838867	0.616229712963104	-0.179650291800499	-0.874970734119415	-0.680163621902466	-0.874989569187164	0.390374720096588	-0.513059997558594	0.0302713508605957	0.866282470703125	-0.349278509616852	0.0	0.614932954311371	-0.22825400531292	1.03831195831299	-1.11768484115601	0.982899475097656	0.114253662109375	-0.176737579345703	0.783317804336548	0.525716185569763	-1.22428917884827	-0.816906094551086	-0.420896977186203	0.992679417133331	0.987354125976562	-0.0254326629638672	-0.154795013427734	0.0	-0.877009272575378	-0.350553959608078	-0.905779421329498	0.479491859674454	-0.93676620721817
0.864234558105469	0.0463845863342285	-0.497063354492188	-1.57212686538696	0.612379372119904	-0.611474871635437	-0.756347894668579	0.455081641674042	0.5419881939888	0.937480895996094	0.168457107543945	0.293940643310547	-0.173641309142113	0.960550546646118	0.524870336055756	-0.704108536243439	-0.656250298023224	-0.325191557407379	1.00342767333984	0.0307700328826904	0.0371130104064941	0.08934485912323	-0.262612611055374	0.52247154712677	-0.917491972446442	-0.292966246604919	0.420406639575958	0.924303161621094	0.319332794189453	0.188477874755859	-1.22341930866241	-0.874354302883148	0.265227526426315	-0.746080160140991	-0.745109438896179	0.205076038837433	0.992166442871094	-0.0498046875	0.0400398101806641	0.177731797099113	0.348584741353989	0.961983501911163	-0.799313426017761	-0.0205037295818329	-0.572273552417755	0.940460388183594	-0.26952001953125	0.177730209350586	-1.04874265193939	-2.97425985336304	1.66393184661865	-0.67822539806366	-0.177250698208809	-0.649409413337708	0.981913696289063	-0.0077916078567504	0.191868743896484	1.39909386634827	0.874466359615326	0.351285070180893	-0.852056443691254	0.5903400182724	-0.0605489611625671	0.988336303710938	-0.0312973575592041	-0.182640640258789	0.958962917327881	0.790324687957764	0.0	-0.789072394371033	-0.472173184156418	0.62010931968689	0.987285339355469	0.0556374168395996	-0.164571243286133	1.04878807067871	0.354310899972916	0.0877945795655251	-0.925787448883057	-0.680650353431702	-0.388191878795624	-0.509769439697266	-0.141140090942383	0.84853662109375	0.0	-0.346193969249725	0.435629546642303	0.173348948359489	1.11718928813934	-0.885242998600006	0.989801086425781	-0.0781655349731445	-0.124950897216797	0.439954817295074	0.0	-0.439674645662308	-0.762697577476501	0.280279129743576	-0.639651715755463	0.978442199707031	0.0078176112174987	-0.244636108398437	1.05062115192413	0.0	-0.258324682712555	-0.680163621902466	-0.871088445186615	0.402818411588669	-0.515514831542969	0.0288298568725586	0.852031982421875	0.0	-0.0804434567689896	0.174231007695198	-0.229495316743851	1.03465366363525	-1.1162257194519	0.980492614746094	0.114682113647461	-0.174843276977539	0.611160039901733	0.262858092784882	-1.31070959568024	-0.817866027355194	-0.420896977186203	0.987315952777863	0.995139404296875	-0.0185412311553955	-0.160630966186523	0.521041333675385	0.261094361543655	-0.0808970630168915	-0.905779421329498	0.479491859674454	-0.937025964260101
0.860849304199219	0.0415073623657227	-0.500502746582031	-1.57212686538696	1.48669099807739	-1.2247588634491	-0.752683758735657	0.452637642621994	0.538812160491943	0.934090270996094	0.164055770874023	0.294437530517578	0.34983617067337	0.87500536441803	0.874783933162689	-0.706554889678955	-0.656250298023224	-0.320556968450546	0.994118591308594	0.0239322490692139	0.0414974861145019	-0.609169483184814	0.174153625965118	0.788211405277252	-0.920150637626648	-0.29174268245697	0.419196248054504	0.925770080566406	0.323253723144531	0.185066802978516	-1.31434905529022	-0.347634822130203	0.70020067691803	-0.744866073131561	-0.749009907245636	0.202155321836472	0.998556701660156	-0.0410170097351074	0.0429688720703125	-0.961068272590637	-0.525331974029541	1.66186130046844	-0.797853827476501	-0.0205037295818329	-0.587653458118439	0.946747253417969	-0.269027587890625	0.177246856689453	-0.524371325969696	-1.83556926250458	1.39841079711914	-0.681870400905609	-0.177491873502731	-0.639653027057648	0.974116943359375	-0.0102634286880493	0.196273513793945	0.262516558170319	0.0	0.610930562019348	-0.852056443691254	0.5903400182724	-0.0605489611625671	0.985821899414063	-0.0244272060394287	-0.172336807250977	1.39321029186249	1.2234833240509	-0.174129605293274	-0.793953657150269	-0.471184909343719	0.616214334964752	0.984861450195312	0.0590993003845215	-0.151840957641602	0.34959602355957	0.170594125986099	0.0	-0.925787448883057	-0.680650353431702	-0.388191878795624	-0.514551513671875	-0.148895050048828	0.84232177734375	0.349721431732178	-0.0814574062824249	0.0	0.174552753567696	1.11987447738647	-0.885242998600006	0.992609985351563	-0.0727712936401367	-0.103977348327637	0.258796960115433	0.348979651927948	0.439674645662308	-0.762697577476501	0.280279129743576	-0.624268174171448	0.964780944824219	-0.0038658518791198	-0.233887939453125	-0.171736150979996	0.258247286081314	1.04996490478516	-0.680163621902466	-0.871088445186615	0.402818411588669	-0.515242065429688	0.0288298568725586	0.860282287597656	-0.964008688926697	0.0	-0.174231007695198	-0.229495316743851	1.03589749336243	-1.11768484115601	0.980999328613281	0.119680709838867	-0.172854278564453	0.0860788747668266	1.2248067855835	-0.0864204093813896	-0.819349467754364	-0.423336893320084	0.99828052520752	0.98827001953125	-0.0239559268951416	-0.14988427734375	0.355255454778671	0.0	0.350553959608078	-0.899645924568176	0.479728639125824	-0.924816310405731
0.866213684082031	0.0507813682556152	-0.492666961669922	-1.92346000671387	1.04953515529633	-0.873793959617615	-0.749019622802734	0.450193673372269	0.535636067390442	0.943337463378906	0.174805206298828	0.300786743164063	0.173641309142113	0.525492012500763	0.524870336055756	-0.708973169326782	-0.656250298023224	-0.315922349691391	0.991198120117188	0.0190428638458252	0.0385745010375977	-0.527946889400482	0.0884589850902557	-0.351317077875137	-0.922840595245361	-0.290533483028412	0.417969733476639	0.923349670410156	0.318344055175781	0.190433258056641	-0.958896219730377	-1.04817175865173	-0.169745624065399	-0.743652045726776	-0.752941071987152	0.199219703674316	0.99316162109375	-0.0380956382751465	0.0332053298950195	-0.612187325954437	0.436958342790604	0.961983501911163	-0.796394228935242	-0.0205037295818329	-0.603033363819122	0.94334716796875	-0.274411437988281	0.180175384521484	-0.172734096646309	-3.14734077453613	0.610698401927948	-0.685547113418579	-0.177733063697815	-0.629876315593719	0.979984619140625	-0.0063407568931579	0.202171417236328	0.874060809612274	-0.523469507694244	0.351285070180893	-0.852056443691254	0.5903400182724	-0.0605489611625671	0.993700378417969	-0.0190837554931641	-0.173852081298828	0.868494749069214	0.349566668272018	-0.438548654317856	-0.79883486032486	-0.470221340656281	0.612291574478149	0.988305969238281	0.0610775184631348	-0.163095260620117	-0.26048332452774	0.879215896129608	0.438972890377045	-0.925787448883057	-0.680650353431702	-0.388191878795624	-0.5091318359375	-0.14551106262207	0.85164404296875	-0.0941557735204697	-0.610930562019348	-0.701257348060608	0.17579197883606	1.1225597858429	-0.885242998600006	0.994081298828125	-0.0722624053955078	-0.121587211608887	0.526220500469208	0.0886297523975372	-0.090967170894146	-0.762697577476501	0.280279129743576	-0.608884632587433	0.975110168457031	0.0063571786880493	-0.236789276123047	0.525310575962067	0.348072439432144	-0.524982452392578	-0.680163621902466	-0.871088445186615	0.402818411588669	-0.518515197753906	0.0273883647918701	0.861782348632812	-0.782383859157562	0.341884702444077	0.174231007695198	-0.229495316743851	1.03710472583771	-1.11914396286011	0.983406188964844	0.117252822875977	-0.178726577758789	0.439002275466919	0.173374488949776	-0.345681637525558	-0.820803880691528	-0.425776779651642	1.00927901268005	0.992162658691406	-0.0224791927337646	-0.154795013427734	0.177627727389336	-0.17406290769577	0.957281947135925	-0.893548369407654	0.479994982481003	-0.912606656551361
0.855484924316406	0.0405319175720215	-0.498050323486328	-1.57212686538696	0.612379372119904	-0.611474871635437	-0.749019622802734	0.450193673372269	0.535636067390442	0.93507666015625	0.165029144287109	0.296866790771484	0.173641309142113	0.349513292312622	0.961527168750763	-0.7087482213974	-0.657466232776642	-0.317383021116257	0.990224670410156	0.0200354461669922	0.0376001739501953	-0.958426654338837	0.174153625965118	1.04944717884064	-0.921620726585388	-0.292966246604919	0.417727649211884	0.924816589355469	0.320321563720703	0.183111419677734	-0.958896219730377	-1.3115314245224	-0.265227526426315	-0.741223931312561	-0.751466870307922	0.203362345695496	0.991695007324219	-0.0463885650634766	0.0292999153137207	-0.434455513954163	0.525331974029541	0.699877858161926	-0.797620296478271	-0.0192827209830284	-0.589104056358337	0.943860412597656	-0.266598297119141	0.173834976196289	0.0	-2.27282643318176	1.48691773414612	-0.681870400905609	-0.179940804839134	-0.627193331718445	0.978537780761719	-0.0044062886238098	0.192839279174805	1.05006623268127	-0.087749220430851	0.263463795185089	-0.854501664638519	0.591303884983063	-0.0576198995113373	0.99068310546875	-0.0210466556549072	-0.172336807250977	1.39321029186249	0.524349987506866	-0.786807894706726	-0.795158922672272	-0.471431970596313	0.617688894271851	0.983840881347656	0.0508155059814453	-0.159651321411133	0.178225427865982	0.262452512979507	0.0	-0.920642733573914	-0.675529360771179	-0.388426035642624	-0.511682281494141	-0.146498062133789	0.847086486816406	0.174860715866089	-0.346193969249725	0.0	0.17579197883606	1.1225597858429	-0.885242998600006	0.988329772949219	-0.0815242080688477	-0.123565849304199	0.258796960115433	0.177259504795074	0.265320897102356	-0.766612827777863	0.278810113668442	-0.610098004341125	0.970278747558594	0.0024054188728332	-0.237316802978516	0.434391438961029	0.0898251459002495	-1.04996490478516	-0.677735507488251	-0.869869351387024	0.402587354183197	-0.518515197753906	0.0248985137939453	0.855969604492188	-1.0478355884552	0.341884702444077	0.522693037986755	-0.229495316743851	1.03710472583771	-1.11914396286011	0.979479187011719	0.112825492858887	-0.180147308349609	0.0860788747668266	0.173374488949776	-1.39713001251221	-0.820803880691528	-0.425776779651642	1.00927901268005	0.995139404296875	-0.0141110258102417	-0.156716613769531	0.0	0.0	0.782004952430725	-0.898426413536072	0.479994982481003	-0.909431576728821
0.871109313964844	0.0488304786682129	-0.501938293457031	-1.0504504442215	1.13624382019043	-0.962439715862274	-0.749019622802734	0.450193673372269	0.535636067390442	0.93896044921875	0.174318511962891	0.294916046142578	0.34983617067337	1.22451865673065	0.524870336055756	-0.708495140075684	-0.65868216753006	-0.318843692541122	0.991198120117188	0.0214691753387451	0.036625846862793	-0.787859201431274	0.0	-0.0855772346258163	-0.920400857925415	-0.295413374900818	0.417485564947128	0.924303161621094	0.317389373779297	0.190433258056641	-1.04982602596283	-0.263359725475311	0.350100338459015	-0.738764703273773	-0.749992728233337	0.20751990377903	0.990699829101563	-0.0498046875	0.0395469818115234	0.0	-0.787997901439667	0.0	-0.798817157745361	-0.0180617123842239	-0.575193285942078	0.93795849609375	-0.272934143066406	0.172854064941406	-0.697105467319489	-3.49805760383606	1.30990374088287	-0.67822539806366	-0.182130008935928	-0.62451034784317	0.977090942382812	-0.0063407568931579	0.198737197875977	0.438521951436996	0.263247668743134	0.351285070180893	-0.856946885585785	0.592287361621857	-0.0546908378601074	0.989174438476563	-0.0219190559387207	-0.186075256347656	1.91792583465576	0.440757989883423	-0.0902894288301468	-0.791513025760651	-0.472667336463928	0.623058378696442	0.989198974609375	0.0571210823059082	-0.164571243286133	0.178225427865982	0.433046638965607	0.0	-0.915527999401093	-0.670408308506012	-0.388660192489624	-0.512319885253906	-0.146921051025391	0.84853662109375	0.0	0.42765137553215	-0.0850008875131607	0.17579197883606	1.1225597858429	-0.885242998600006	0.989266052246094	-0.0736873016357422	-0.124950897216797	-0.612486124038696	0.348979651927948	0.174353733658791	-0.770494282245636	0.27734112739563	-0.611333012580872	0.978941955566406	0.010223030090332	-0.245097671508789	0.434391438961029	0.0	-0.174994140863419	-0.675307393074036	-0.868650257587433	0.402356296777725	-0.514696533203125	0.0263400058746338	0.857469665527344	-0.880181849002838	0.0	-0.522693037986755	-0.229495316743851	1.03710472583771	-1.11914396286011	0.974665405273437	0.112825492858887	-0.172854278564453	0.0	0.0894836038351059	0.259261220693588	-0.820803880691528	-0.425776779651642	1.00927901268005	0.993193054199219	-0.0141110258102417	-0.155791397094727	0.438148379325867	-0.0870314538478851	0.60672801733017	-0.903304517269135	0.479994982481003	-0.906256496906281
0.867203186035156	0.0483354759216309	-0.494640869140625	-1.57212686538696	1.04953515529633	-0.873793959617615	-0.750250101089478	0.451415657997131	0.546871662139893	0.93606298828125	0.167970428466797	0.298835968017578	0.786493003368378	0.525492012500763	0.786570429801941	-0.707510948181152	-0.662350594997406	-0.336426645517349	0.994605346679687	0.0239322490692139	0.0302705764770508	-0.17868971824646	-0.174153625965118	0.175658538937569	-0.921620726585388	-0.292966246604919	0.420406639575958	0.930684204101562	0.321787628173828	0.185544784545898	-1.04982602596283	-0.437177151441574	0.0848728120326996	-0.741223931312561	-0.750238418579102	0.20483760535717	0.996094848632813	-0.0434671936035156	0.0439452247619629	-0.263306379318237	-0.699624300003052	1.04842257499695	-0.798817157745361	-0.0180617123842239	-0.575193285942078	0.938984924316406	-0.26952001953125	0.166997024536133	0.789641559123993	-2.79662418365479	1.13288974761963	-0.679207980632782	-0.18114672601223	-0.639896988868713	0.981913696289063	-0.0048899054527282	0.193884475708008	0.349027693271637	0.087749220430851	0.786573052406311	-0.858154714107513	0.592287361621857	-0.0656710639595985	0.989174438476563	-0.0254086570739746	-0.175771423339844	1.57414662837982	1.04869997501373	-0.264419049024582	-0.791513025760651	-0.472420245409012	0.623058378696442	0.991240112304687	0.0571210823059082	-0.167461700439453	0.089112713932991	0.616763412952423	-0.438972890377045	-0.916761577129364	-0.675291180610657	-0.387463361024857	-0.512638671875	-0.145088073730469	0.84853662109375	-0.618737936019897	0.0814574062824249	-0.265627771615982	0.174552753567696	1.11987447738647	-0.882564783096313	0.991272399902344	-0.0795904235839844	-0.10842928314209	-0.172531306743622	-0.0886297523975372	0.871768712997437	-0.766612827777863	0.277593851089478	-0.622794806957245	0.977109375	0.0073021645545959	-0.245097671508789	0.171736150979996	0.0898251459002495	-0.258324682712555	-0.678725898265839	-0.8701131939888	0.391364932060242	-0.513059997558594	0.0288298568725586	0.857469665527344	0.0	0.442439019680023	-0.789163947105408	-0.225844413042068	1.03589749336243	-1.11790370941162	0.984419616699219	0.112825492858887	-0.172380706787109	0.172157749533653	-0.173374488949776	-0.432102054357529	-0.818360507488251	-0.42552438378334	1.01586449146271	0.986781677246094	-0.021494701385498	-0.157214797973633	0.438148379325867	0.17406290769577	0.701107919216156	-0.899645924568176	0.481208354234695	-0.918956816196442
0.86522412109375	0.0449286994934082	-0.501459777832031	-1.57212686538696	1.22475874423981	-1.66075122356415	-0.751453280448914	0.452637642621994	0.558107256889343	0.939453674316406	0.170890548706055	0.297363708496094	0.699672341346741	0.787015974521637	0.961527168750763	-0.706554889678955	-0.666018962860107	-0.353998631238937	0.998560180664062	0.0292995414733887	0.0351643562316895	0.0	-0.262612611055374	0.261235773563385	-0.922840595245361	-0.290533483028412	0.4233438372612	0.925770080566406	0.321276214599609	0.188955856323242	-1.04982602596283	0.0	0.0848728120326996	-0.743652045726776	-0.750484108924866	0.202155321836472	0.990228393554688	-0.0498046875	0.0444380493164062	-0.434455513954163	-0.962290287017822	0.348544746637344	-0.798817157745361	-0.0180617123842239	-0.575193285942078	0.945335876464844	-0.267583160400391	0.171873153686523	0.524371325969696	-2.62354326248169	1.8320951461792	-0.68019050359726	-0.180181995034218	-0.655283570289612	0.984405456542969	-0.0058571395874023	0.196796112060547	0.960571944713593	-0.611218690872192	0.263463795185089	-0.859362602233887	0.592287361621857	-0.0766663104295731	0.991185974121094	-0.0151579542160034	-0.170417465209961	0.778026521205902	0.699133336544037	-0.0902894288301468	-0.791513025760651	-0.472173184156418	0.623058378696442	0.991240112304687	0.0590993003845215	-0.164079254150391	0.699192047119141	0.170594125986099	-0.438972890377045	-0.917964994907379	-0.680173993110657	-0.386240512132645	-0.504987365722656	-0.144524078369141	0.84853662109375	0.524582147598267	-0.183279156684875	0.170001775026321	0.173348948359489	1.11718928813934	-0.879886507987976	0.994081298828125	-0.0785726470947266	-0.128413513183594	0.526220500469208	0.0	-0.265320897102356	-0.762697577476501	0.27783077955246	-0.634278297424316	0.970278747558594	0.0024054188728332	-0.240745666503906	0.787965893745422	0.179650291800499	-0.608312964439392	-0.682144463062286	-0.871576130390167	0.380373597145081	-0.517969665527344	0.0254226913452148	0.857469665527344	0.0838268399238586	-0.261441230773926	0.0922399461269379	-0.222157016396523	1.03465366363525	-1.11669993400574	0.98631982421875	0.124536491394043	-0.184598892211914	0.697238922119141	-0.0894836038351059	0.0	-0.815917134284973	-0.425300031900406	1.02244997024536	0.996627746582031	-0.0195257205963135	-0.154795013427734	1.13681745529175	-0.435157269239426	0.876384913921356	-0.895987391471863	0.482421725988388	-0.931628346443176
0.869651000976562	0.0527322578430176	-0.500502746582031	-1.66084730625153	0.874311566352844	-0.17548243701458	-0.751453280448914	0.451415657997131	0.547110319137573	0.931624328613281	0.169917175292969	0.299811370849609	0.173641309142113	0.787015974521637	0.0867432802915573	-0.706554889678955	-0.666018962860107	-0.353998631238937	0.993145141601563	0.0263585586547852	0.0400359916687012	-0.349257171154022	-0.174153625965118	0.175658538937569	-0.922840595245361	-0.290533483028412	0.4233438372612	0.927750427246094	0.323253723144531	0.190911254882812	-0.876232743263245	0.173817411065102	-0.169745624065399	-0.743652045726776	-0.750484108924866	0.202155321836472	0.992166442871094	-0.0463885650634766	0.038570629119873	-1.13880002498627	-0.525331974029541	1.04842257499695	-0.797620296478271	-0.0217247381806374	-0.576904237270355	0.937509399414063	-0.265613464355469	0.178711120605469	0.438004314899445	-3.06080031394958	1.57542479038239	-0.680412411689758	-0.180181995034218	-0.655019342899323	0.980949157714844	-0.0088125772476196	0.200678283691406	1.57509934902191	-0.087749220430851	0.351285070180893	-0.855709493160248	0.592523396015167	-0.0671431049704552	0.984816101074219	-0.0238819561004639	-0.176781600952148	1.1398993730545	0.174783334136009	-0.696518421173096	-0.790277659893036	-0.468516558408737	0.62010931968689	0.988816223144531	0.0625611839294434	-0.156760879516602	0.26048332452774	0.433046638965607	0.263383746147156	-0.920401990413666	-0.681632876396179	-0.395502984523773	-0.508175415039062	-0.137756118774414	0.846672180175781	-0.524582147598267	-0.42765137553215	0.0850008875131607	0.173348948359489	1.11595273017883	-0.878404974937439	0.988731018066406	-0.0834579925537109	-0.127424194335937	0.0	-0.437609404325485	-0.788382112979889	-0.762697577476501	0.27783077955246	-0.634278297424316	0.978442199707031	0.0097934913635253	-0.242196334838867	0.616229712963104	0.258247286081314	-1.04996490478516	-0.677479922771454	-0.872307598590851	0.395523846149445	-0.519606201171875	0.0234570198059082	0.868157592773438	-0.181624829769135	-0.0804434567689896	0.696924030780792	-0.225844413042068	1.03589749336243	-1.11644458770752	0.983912902832031	0.115253379821777	-0.173327850341797	0.352923393249512	0.0	-0.345681637525558	-0.816906094551086	-0.427992343902588	1.00340628623962	0.99262060546875	-0.0200179672241211	-0.153798629760742	0.876296758651733	0.0	0.0808970630168915	-0.895987391471863	0.482421725988388	-0.931628346443176
0.872567565917969	0.0468795890808105	-0.505377655029297	-2.09735202789307	0.612379372119904	-0.786957323551178	-0.751453280448914	0.450193673372269	0.536131739616394	0.943337463378906	0.173345138549805	0.303712890625	0.0	1.22451865673065	0.0	-0.706554889678955	-0.666018962860107	-0.353998631238937	0.991684875488281	0.0200354461669922	0.0376001739501953	0.0	-0.525225222110748	-0.351317077875137	-0.922840595245361	-0.290533483028412	0.4233438372612	0.921369323730469	0.312991149902344	0.182133712768555	-1.04982602596283	-0.173817411065102	0.0	-0.743652045726776	-0.750484108924866	0.202155321836472	0.989233215332031	-0.0517601203918457	0.038087100982666	0.177731797099113	-0.436958342790604	0.348544746637344	-0.796394228935242	-0.0253877639770508	-0.578615188598633	0.939947143554687	-0.265121032714844	0.170408889770508	2.18385243415833	-2.97425985336304	1.05323338508606	-0.680665969848633	-0.180181995034218	-0.654775440692902	0.980466857910156	-0.009296194076538	0.207546737670898	1.31258273124695	-0.874466359615326	0.962215602397919	-0.852056443691254	0.592779099941254	-0.0576198995113373	0.983810363769531	-0.022900505065918	-0.179206039428711	1.48367846012115	0.524349987506866	-0.438548654317856	-0.789072394371033	-0.46483525633812	0.617188096046448	0.984351196289063	0.054648307800293	-0.161619293212891	0.699192047119141	0.0918583795428276	0.438972890377045	-0.922838985919952	-0.683091819286346	-0.404791504144669	-0.514232727050781	-0.14551106262207	0.846672180175781	0.174860715866089	-0.2647365629673	0.170001775026321	0.173348948359489	1.11475145816803	-0.87695187330246	0.990737426757813	-0.0806082077026367	-0.117629943847656	-0.0862656533718109	-0.437609404325485	-0.348707467317581	-0.762697577476501	0.27783077955246	-0.634278297424316	0.967279968261719	0.0	-0.242657913208008	1.39409351348877	0.527722716331482	-0.433318823575974	-0.672847270965576	-0.87303900718689	0.410641074180603	-0.514151062011719	0.0293540363311768	0.862344848632812	0.349278509616852	1.30720615386963	0.348462015390396	-0.229495316743851	1.03710472583771	-1.1162257194519	0.979479187011719	0.110826057434082	-0.176737579345703	0.439002275466919	0.0894836038351059	-0.172840818762779	-0.817866027355194	-0.430656582117081	0.984362661838531	0.995139404296875	-0.021494701385498	-0.150880661010742	-0.0828929394483566	0.0	0.256174057722092	-0.895987391471863	0.482421725988388	-0.931628346443176
0.86522412109375	0.0410123596191406	-0.498528839111328	-1.66084730625153	1.04953515529633	-0.786957323551178	-0.750250101089478	0.452887952327728	0.534663081169128	0.93896044921875	0.166510360717773	0.297363708496094	0.873313665390015	0.699026584625244	0.436656832695007	-0.707510948181152	-0.65868216753006	-0.332033663988113	0.990711364746094	0.0244101581573486	0.0376001739501953	0.08934485912323	-0.699378848075867	0.0	-0.916491031646729	-0.290288776159286	0.417485564947128	0.926283508300781	0.322742279052734	0.186044494628906	-0.958896219730377	-0.437177151441574	0.265227526426315	-0.742437958717346	-0.750238418579102	0.201901987195015	0.997561462402344	-0.0468833160400391	0.0292999153137207	-0.177731797099113	-0.174292370676994	0.699877858161926	-0.795168161392212	-0.0241667553782463	-0.592525899410248	0.944822692871094	-0.261706878662109	0.166499450683594	1.31401288509369	-2.62354326248169	1.13288974761963	-0.680665969848633	-0.177491873502731	-0.636726140975952	0.976046020507813	-0.0126815137863159	0.193884475708008	0.874060809612274	0.435720264911652	0.351285070180893	-0.852056443691254	0.592779099941254	-0.0576198995113373	0.988839172363281	-0.0171208553314209	-0.173346984863281	1.57414662837982	0.265974640846252	-0.348259210586548	-0.791513025760651	-0.466317653656006	0.617438495159149	0.985371765136719	0.0571210823059082	-0.164079254150391	0.959675371646881	0.433046638965607	-0.3511783182621	-0.922838985919952	-0.683091819286346	-0.405025660991669	-0.512319885253906	-0.142550079345703	0.846672180175781	0.699442863464355	0.0	0.265627771615982	0.173348948359489	1.11475145816803	-0.87695187330246	0.995552673339844	-0.0757228622436524	-0.117629943847656	-0.258796960115433	-0.0886297523975372	-0.523061215877533	-0.762697577476501	0.275398254394531	-0.621581494808197	0.973610778808594	0.0083330583572387	-0.234349517822266	0.434391438961029	0.348072439432144	0.0833305418491364	-0.672847270965576	-0.873282849788666	0.410641074180603	-0.515242065429688	0.0288298568725586	0.856532104492188	0.181624829769135	0.0804434567689896	0.0	-0.22825400531292	1.03831195831299	-1.11352622509003	0.978972473144531	0.115681831359863	-0.172854278564453	-0.0860788747668266	-0.173374488949776	-0.172840818762779	-0.813241004943848	-0.429198265075684	0.99902731180191	0.987812072753906	-0.021494701385498	-0.154795013427734	0.781561970710754	0.17406290769577	0.431451022624969	-0.898426413536072	0.479994982481003	-0.920400083065033
0.873036315917969	0.049310920715332	-0.488270538330078	-2.5338568687439	1.57339954376221	-0.962439715862274	-0.749019622802734	0.455567479133606	0.533194363117218	0.936987731933594	0.168457107543945	0.290039093017578	0.873313665390015	0.611037254333496	0.349913567304611	-0.708495140075684	-0.651365995407104	-0.310057699680328	0.99953369140625	0.0292995414733887	0.0351643562316895	-0.698514342308044	1.31029868125916	0.261235773563385	-0.91014152765274	-0.290044069290161	0.411627322435379	0.933104614257813	0.322264953613281	0.183111419677734	-0.438116371631622	-0.963896572589874	-0.615327894687653	-0.741223931312561	-0.749992728233337	0.201663568615913	0.987818969726562	-0.0542103042602539	0.0551779441833496	-0.177731797099113	-0.088373601436615	1.74830043315887	-0.793942034244537	-0.0229457467794418	-0.606436610221863	0.9384716796875	-0.267090728759766	0.171873153686523	2.09748530387878	-3.32042193412781	1.2213968038559	-0.680665969848633	-0.174801766872406	-0.618656516075134	0.979984619140625	-0.007307991027832	0.201200881958008	1.31258273124695	0.175498440861702	0.351285070180893	-0.852056443691254	0.592779099941254	-0.0576198995113373	0.987833435058594	-0.0214828548431396	-0.172841888427734	0.778026521205902	1.31467461585999	0.0902894288301468	-0.793953657150269	-0.467775374650955	0.617688894271851	0.983840881347656	0.0576156349182129	-0.159651321411133	-0.178225427865982	1.04981005191803	0.7023566365242	-0.922838985919952	-0.683091819286346	-0.405285835266113	-0.513276306152344	-0.145088073730469	0.850193908691406	1.04916429519653	-0.0814574062824249	0.0	0.173348948359489	1.11475145816803	-0.87695187330246	0.990202392578125	-0.0820330963134766	-0.123565849304199	-0.0862656533718109	0.526239156723022	-0.439674645662308	-0.762697577476501	0.272949904203415	-0.608884632587433	0.975609985351563	0.0048967456817627	-0.233887939453125	-0.787965893745422	0.258247286081314	0.0	-0.672847270965576	-0.873526692390442	0.410641074180603	-0.515242065429688	0.0277814979553223	0.855032043457031	-0.43310534954071	0.60332590341568	1.13762593269348	-0.227049216628075	1.03955578804016	-1.11082673072815	0.979479187011719	0.112825492858887	-0.182609893798828	0.0	0.0	0.0	-0.808586955070496	-0.427739918231964	1.01365792751312	0.99262060546875	-0.0210024566650391	-0.159634582519531	-0.177627727389336	0.17406290769577	0.256174057722092	-0.900865435600281	0.477538615465164	-0.90917181968689
0.875484130859375	0.0468795890808105	-0.496106323242188	-1.74956786632538	1.39817595481873	-1.39843213558197	-0.749019622802734	0.455317199230194	0.533194363117218	0.946789733886719	0.175778579711914	0.303712890625	-0.0868206545710564	0.960550546646118	0.436656832695007	-0.706048727035522	-0.653818488121033	-0.313231647014618	0.998560180664062	0.0278290500640869	0.033680721282959	-0.17868971824646	0.436766237020493	-0.351317077875137	-0.911361396312714	-0.290288776159286	0.415774911642075	0.936038452148438	0.322742279052734	0.187500183105469	-1.13248944282532	-0.437177151441574	-0.615327894687653	-0.739978730678558	-0.752695381641388	0.20483760535717	0.998556701660156	-0.0502994346618652	0.0336888580322266	0.612187325954437	-1.3992486000061	0.262105643749237	-0.800305962562561	-0.0231876447796822	-0.593753337860107	0.950660461425781	-0.253893768310547	0.172854064941406	1.40037989616394	-2.35936689376831	1.2213968038559	-0.680665969848633	-0.171146914362907	-0.624266445636749	0.985369995117187	-0.0034390544891357	0.203141967773437	0.787549674510956	-0.786717116832733	0.0	-0.849611222743988	0.592779099941254	-0.0549311712384224	0.991688842773437	-0.0155941543579102	-0.176276504516602	1.1398993730545	0.349566668272018	-0.438548654317856	-0.793953657150269	-0.468986004590988	0.612069010734558	0.985371765136719	0.0581101913452148	-0.152332946777344	0.34959602355957	0.524905025959015	-0.790151238441467	-0.920401990413666	-0.679191470146179	-0.40112292766571	-0.515507934570313	-0.145088073730469	0.850193908691406	0.793598651885986	0.0	-0.265627771615982	0.173348948359489	1.11475145816803	-0.87695187330246	0.987259704589844	-0.0820330963134766	-0.112782279968262	0.0862656533718109	-0.177259504795074	-0.439674645662308	-0.762697577476501	0.274166196584702	-0.610357999801636	0.977609191894531	0.011253924369812	-0.233887939453125	0.434391438961029	0.179650291800499	-0.433318823575974	-0.675307393074036	-0.872307598590851	0.405260920524597	-0.5171513671875	0.0224086608886719	0.8593447265625	0.0	0.0	0.0	-0.227049216628075	1.03955578804016	-1.11082673072815	0.983406188964844	0.114253662109375	-0.169444549560547	0.172157749533653	0.352341681718826	-0.878607511520386	-0.808586955070496	-0.427739918231964	1.01392960548401	0.99262060546875	-0.0210024566650391	-0.147464492797852	0.438148379325867	0.348125815391541	0.525830924510956	-0.900865435600281	0.477538615465164	-0.906256496906281
0.875015380859375	0.0459041442871094	-0.503912200927734	-2.27479314804077	0.961020171642303	-1.2247588634491	-0.749019622802734	0.455081641674042	0.533194363117218	0.945310180664062	0.171377227783203	0.304688293457031	0.523477494716644	1.04853987693787	-0.349913567304611	-0.703602373600006	-0.656250298023224	-0.316405564546585	0.99953369140625	0.0248880672454834	0.0302705764770508	0.0	-0.436766237020493	-0.175658538937569	-0.912612497806549	-0.290533483028412	0.419922471046448	0.928703918457031	0.321276214599609	0.197255401611328	-1.04982602596283	-0.0895423069596291	-0.265227526426315	-0.738764703273773	-0.755367338657379	0.208011656999588	1.00096612548828	-0.0463885650634766	0.0395469818115234	0.526612758636475	-2.18479180335999	0.786316931247711	-0.806640684604645	-0.0234410632401705	-0.581051409244537	0.952135925292969	-0.251956893920898	0.181156295776367	2.09748530387878	-2.71008372306824	0.610698401927948	-0.680665969848633	-0.167473524808884	-0.629876315593719	0.978055480957031	-0.009296194076538	0.198737197875977	0.0	-0.611218690872192	0.351285070180893	-0.847166001796722	0.592779099941254	-0.0522424429655075	0.991185974121094	-0.0136312532424927	-0.179206039428711	1.23036754131317	0.524349987506866	-0.438548654317856	-0.793953657150269	-0.470221340656281	0.606449067592621	0.989198974609375	0.0551428604125977	-0.160143310546875	0.26048332452774	0.0918583795428276	0.438972890377045	-0.917964994907379	-0.675291180610657	-0.396960020065308	-0.512319885253906	-0.145088073730469	0.844186218261719	0.0	-0.346193969249725	-0.520630419254303	0.173348948359489	1.11475145816803	-0.87695187330246	0.986323425292969	-0.0854935531616211	-0.119608581542969	0.172531306743622	-0.177259504795074	-0.265320897102356	-0.762697577476501	0.275398254394531	-0.61180967092514	0.973110961914063	0.0087625970840454	-0.234349517822266	0.0	0.348072439432144	-0.349988281726837	-0.677735507488251	-0.871088445186615	0.399913787841797	-0.510332397460938	0.031188663482666	0.860282287597656	0.0	-0.0804434567689896	0.0922399461269379	-0.227049216628075	1.03955578804016	-1.11082673072815	0.981506042480469	0.113825210571289	-0.181662734985352	-0.172157749533653	0.0	-0.518522441387177	-0.808586955070496	-0.427739918231964	1.01416718959808	0.989300476074219	-0.0264171524047852	-0.154296829223633	0.177627727389336	-0.348125815391541	0.701107919216156	-0.900865435600281	0.477538615465164	-0.9033123254776
0.877931945800781	0.0424828071594238	-0.504869232177734	-2.5338568687439	1.83533179759979	-1.48707795143127	-0.751453280448914	0.453859657049179	0.540042161941528	0.937480895996094	0.169917175292969	0.298339080810547	-1.22314977645874	1.7475665807724	0.961527168750763	-0.703602373600006	-0.655034422874451	-0.320556968450546	1.00196740722656	0.0273511409759521	0.0419846496582031	0.877204060554504	0.0884589850902557	0.0855772346258163	-0.913832366466522	-0.287841647863388	0.417243510484695	0.9316376953125	0.321276214599609	0.185544784545898	-0.876232743263245	0.263359725475311	-0.169745624065399	-0.743901073932648	-0.751712560653687	0.205076038837433	1.00342791748047	-0.0434671936035156	0.0346652145385742	0.6977618932724	0.0	0.875544369220734	-0.806640684604645	-0.0234410632401705	-0.581051409244537	0.94334716796875	-0.266598297119141	0.164068496704102	0.438004314899445	-2.97425985336304	1.66393184661865	-0.681870400905609	-0.171388104557991	-0.636970043182373	0.983923217773437	-0.0048899054527282	0.198214599609375	0.698055386543274	-0.611218690872192	0.0	-0.850819051265717	0.592523396015167	-0.0454079657793045	0.98682763671875	-0.0210466556549072	-0.17476123046875	0.434247374534607	0.0911913067102432	0.0	-0.793953657150269	-0.470221340656281	0.606449067592621	0.981927307128906	0.049331844329834	-0.164079254150391	0.438708752393723	0.170594125986099	0.7023566365242	-0.916761577129364	-0.675291180610657	-0.392823129892349	-0.511682281494141	-0.147908050537109	0.851022583007813	0.0941557735204697	0.346193969249725	0.265627771615982	0.170905917882919	1.11475145816803	-0.878177046775818	0.988731018066406	-0.0810153198242188	-0.125445556640625	-0.69875180721283	-0.609329521656036	-0.174353733658791	-0.76904296875	0.277593851089478	-0.62548154592514	0.970778564453125	-0.0009449859857559	-0.241668823242187	-0.787965893745422	0.179650291800499	0.174994140863419	-0.677735507488251	-0.871088445186615	0.404039651155472	-0.516605895996094	0.0243743343353271	0.849594360351563	-0.698557019233704	0.0	0.348462015390396	-0.229495316743851	1.03710472583771	-1.11473000049591	0.977578979492188	0.112825492858887	-0.178726577758789	0.0	0.173374488949776	-0.345681637525558	-0.813473701477051	-0.426758348941803	1.01026344299316	0.991246765136719	-0.0293706226348877	-0.154296829223633	0.355255454778671	0.17406290769577	0.701107919216156	-0.900865435600281	0.479994982481003	-0.91869705915451
0.872046752929687	0.0468795890808105	-0.497063354492188	-1.74956786632538	0.961020171642303	-0.962439715862274	-0.7539142370224	0.452637642621994	0.546871662139893	0.941919555664062	0.169917175292969	0.302737518310547	0.0868206545710564	1.39805316925049	0.874783933162689	-0.703602373600006	-0.653818488121033	-0.324708342552185	1.00002044677734	0.0273511409759521	0.033680721282959	0.609169483184814	-0.0884589850902557	-0.436894297599792	-0.915052235126495	-0.285149782896042	0.414548367261887	0.936991943359375	0.325197113037109	0.19141096496582	-0.958896219730377	0.173817411065102	-0.169745624065399	-0.749037444591522	-0.748057842254639	0.202155321836472	0.992690185546875	-0.0571316795349121	0.038570629119873	0.87549364566803	-1.04820907115936	0.0	-0.806640684604645	-0.0234410632401705	-0.581051409244537	0.944822692871094	-0.263676574707031	0.173834976196289	0.438004314899445	-2.97425985336304	1.39841079711914	-0.683106541633606	-0.175284132361412	-0.644043445587158	0.979020080566406	-0.009296194076538	0.193884475708008	1.39909386634827	-0.435720264911652	0.175642535090446	-0.854501664638519	0.592287361621857	-0.0385734885931015	0.985821899414063	-0.0165756034851074	-0.172336807250977	0.253310948610306	0.0911913067102432	-0.264419049024582	-0.793953657150269	-0.470221340656281	0.606449067592621	0.982947875976563	0.0518046188354492	-0.160143310546875	0.699192047119141	0.0	0.17558915913105	-0.915527999401093	-0.675291180610657	-0.388660192489624	-0.5091318359375	-0.146498062133789	0.844186218261719	0.524582147598267	-0.0814574062824249	0.350628674030304	0.168462887406349	1.11475145816803	-0.879402160644531	0.99314501953125	-0.0820330963134766	-0.116739555358887	0.69875180721283	-0.177259504795074	-0.697414934635162	-0.775388360023499	0.279789447784424	-0.639153361320496	0.978442199707031	0.0087625970840454	-0.243647003173828	0.87888503074646	0.179650291800499	0.0	-0.677735507488251	-0.871088445186615	0.408198565244675	-0.514151062011719	0.026864185333252	0.868157592773438	-0.349278509616852	0.0804434567689896	0.0	-0.231941416859627	1.03465366363525	-1.11866974830627	0.981886047363281	0.117681274414062	-0.177779434204102	0.0860788747668266	0.525716185569763	-0.792187094688416	-0.818360507488251	-0.425776779651642	1.00635957717896	0.997085693359375	-0.0224791927337646	-0.157214797973633	0.959189713001251	0.0	0.0	-0.900865435600281	0.482421725988388	-0.934081792831421
0.868661499023437	0.0419878044128418	-0.498050323486328	-1.66084730625153	1.22475874423981	-0.524638175964355	-0.7539142370224	0.451415657997131	0.544191300868988	0.954619079589844	0.187014694213867	0.310062103271484	0.523477494716644	1.1365293264389	1.04974067211151	-0.703855454921722	-0.65357118844986	-0.324949949979782	0.993631896972656	0.0219838466644287	0.0331935577392578	0.698514342308044	-0.262612611055374	-0.351317077875137	-0.915052235126495	-0.285149782896042	0.414548367261887	0.930684204101562	0.319810119628906	0.187500183105469	-1.04982602596283	0.0	-0.0848728120326996	-0.749037444591522	-0.748057842254639	0.202155321836472	1.00782781982422	-0.0405222625732422	0.0405233383178711	0.87549364566803	-1.13658261299133	1.04842257499695	-0.802728950977325	-0.0207571480423212	-0.582762360572815	0.945784973144531	-0.254878616333008	0.170892242431641	0.351637244224548	-2.53700280189514	1.48691773414612	-0.683106541633606	-0.175284132361412	-0.643799543380737	0.983923217773437	-0.0029554374217987	0.206053588867187	1.22308850288391	-0.523469507694244	0.263463795185089	-0.852056443691254	0.591303884983063	-0.0617656484246254	0.991185974121094	-0.0200652046203613	-0.172841888427734	0.434247374534607	0.349566668272018	0.348259210586548	-0.791513025760651	-0.468986004590988	0.611818611621857	0.988305969238281	0.0581101913452148	-0.151840957641602	0.699192047119141	-0.354310899972916	-0.790151238441467	-0.915527999401093	-0.675291180610657	-0.388660192489624	-0.511363464355469	-0.142550079345703	0.845222045898438	-0.174860715866089	-0.610930562019348	-0.170001775026321	0.170905917882919	1.12111115455627	-0.879630088806152	0.987794738769531	-0.0849846649169922	-0.11327693939209	0.526220500469208	-0.963848531246185	-0.174353733658791	-0.775388360023499	0.279789447784424	-0.639153361320496	0.970778564453125	0.0038658518791198	-0.233426361083984	0.171736150979996	-0.437897592782974	0.174994140863419	-0.679205179214478	-0.871332287788391	0.405524969100952	-0.512787231445312	0.0248985137939453	0.860282287597656	0.530903339385986	0.180997774004936	0.0	-0.230700105428696	1.03955578804016	-1.11597037315369	0.980999328613281	0.118680992126465	-0.169918121337891	0.0	-0.173374488949776	-0.604942858219147	-0.814462721347809	-0.425776779651642	0.989760100841522	0.991704711914063	-0.0205102119445801	-0.158211181640625	1.05392456054688	-0.348125815391541	0.0	-0.899645924568176	0.481208354234695	-0.927240908145905
0.875484130859375	0.0459041442871094	-0.495597900390625	-1.39823472499847	1.92384672164917	-0.786957323551178	-0.7539142370224	0.450193673372269	0.541510879993439	0.939946838378906	0.166510360717773	0.295891418457031	0.699672341346741	1.39805316925049	0.874783933162689	-0.704108536243439	-0.653323829174042	-0.325191557407379	1.00586138916016	0.0322405242919922	0.0410103225708008	1.57571840286255	1.13614511489868	-0.6125528216362	-0.915052235126495	-0.285149782896042	0.414548367261887	0.936991943359375	0.320798889160156	0.19141096496582	-0.520779848098755	0.526719450950623	-0.0848728120326996	-0.749037444591522	-0.748057842254639	0.202155321836472	1.00096612548828	-0.0463885650634766	0.0322289772033691	1.83656191825867	-1.22495627403259	0.875544369220734	-0.798817157745361	-0.0180617123842239	-0.584473311901093	0.95021142578125	-0.257800323486328	0.166997024536133	0.876008629798889	-3.06080031394958	1.57542479038239	-0.683106541633606	-0.175284132361412	-0.643555581569672	0.9775732421875	-0.0131651306152344	0.193884475708008	0.787549674510956	-0.962215602397919	0.263463795185089	-0.849611222743988	0.5903400182724	-0.0849578082561493	0.985821899414063	-0.0195199546813965	-0.17183171081543	0.434247374534607	0.615541338920593	-0.0902894288301468	-0.789072394371033	-0.467775374650955	0.617188096046448	0.983840881347656	0.0527937278747559	-0.16893766784668	0.438708752393723	0.170594125986099	0.0	-0.915527999401093	-0.675291180610657	-0.388660192489624	-0.511363464355469	-0.14551106262207	0.849158081054687	0.0	0.0	-0.170001775026321	0.173348948359489	1.12743544578552	-0.879886507987976	0.988329772949219	-0.0815242080688477	-0.11575023651123	0.95754873752594	-0.437609404325485	-0.265320897102356	-0.775388360023499	0.279789447784424	-0.639153361320496	0.979441772460938	0.0107384767532349	-0.238767471313477	0.697046756744385	-0.437897592782974	0.608312964439392	-0.68067479133606	-0.871576130390167	0.402818411588669	-0.517696899414062	0.0258158264160156	0.863282409667969	0.265451669692993	0.0	-0.0922399461269379	-0.229495316743851	1.04442143440247	-1.11327087879181	0.978085693359375	0.119680709838867	-0.176737579345703	0.258236616849899	0.352341681718826	-0.259261220693588	-0.810535848140717	-0.425776779651642	0.973160564899445	0.995597351074219	-0.0239559268951416	-0.156716613769531	0.615776121616364	0.261094361543655	0.60672801733017	-0.898426413536072	0.479994982481003	-0.920400083065033
0.872567565917969	0.0463845863342285	-0.500981262207031	-2.35996460914612	2.88486695289612	-0.17548243701458	-0.754160344600677	0.449958115816116	0.541510879993439	0.93896044921875	0.171885070800781	0.302240631103516	0.962687849998474	1.57403194904327	0.261700063943863	-0.701409041881561	-0.654787063598633	-0.329584568738937	0.998560180664062	0.0234543380737305	0.0312449035644531	0.698514342308044	0.262612611055374	-0.788211405277252	-0.916272103786469	-0.290288776159286	0.417485564947128	0.929657409667969	0.317866729736328	0.188477874755859	-0.34718656539917	0.0	-0.0848728120326996	-0.745115101337433	-0.749009907245636	0.203362345695496	1.00437078857422	-0.0444331321716309	0.0429688720703125	0.87549364566803	-1.48516738414764	0.699877858161926	-0.796394228935242	-0.0217247381806374	-0.593753337860107	0.953611450195312	-0.261706878662109	0.170892242431641	0.962375640869141	-2.71008372306824	1.05323338508606	-0.681870400905609	-0.173837035894394	-0.628412902355194	0.983923217773437	-0.0019344681501388	0.206576187133789	0.611544251441956	-0.175498440861702	-0.69875180721283	-0.849611222743988	0.5903400182724	-0.0849578082561493	0.99068310546875	-0.0146127033233643	-0.169407287597656	0.0	0.524349987506866	0.0902894288301468	-0.790277659893036	-0.467775374650955	0.614489436149597	0.986775085449219	0.0576156349182129	-0.158667343139648	1.3092714548111	-0.354310899972916	-0.0877945795655251	-0.916761577129364	-0.676511883735657	-0.390143245458603	-0.508813018798828	-0.141563095092773	0.846672180175781	-0.26901650428772	-0.2647365629673	-0.0850008875131607	0.173348948359489	1.12354898452759	-0.881111681461334	0.988329772949219	-0.0825419921875	-0.123565849304199	0.871283113956451	-0.609329521656036	-0.090967170894146	-0.76904296875	0.277593851089478	-0.622556507587433	0.975609985351563	0.0121989097595215	-0.228546829223633	1.31327652931213	-0.0898251459002495	0.0	-0.68067479133606	-0.871576130390167	0.403082460165024	-0.512787231445312	0.0283056774139404	0.8589697265625	-0.265451669692993	-0.180997774004936	0.0	-0.230700105428696	1.03955578804016	-1.11327087879181	0.979479187011719	0.12110888671875	-0.179200164794922	0.172157749533653	-0.0894836038351059	0.604942858219147	-0.813241004943848	-0.424570858478546	0.989488542079926	0.99067431640625	-0.0205102119445801	-0.158211181640625	-0.0828929394483566	0.0870314538478851	0.350553959608078	-0.898426413536072	0.479994982481003	-0.920400083065033
0.867203186035156	0.0429632530212402	-0.491709930419922	-1.39823472499847	1.39817595481873	-0.611474871635437	-0.754406452178955	0.449707806110382	0.541510879993439	0.943830627441406	0.171885070800781	0.303216003417969	1.48616528511047	1.3125079870224	0.611613631248474	-0.698737740516663	-0.656250298023224	-0.333988547325134	1.00050714111328	0.0268732318878174	0.036625846862793	1.39702868461609	0.0	-1.13502442836761	-0.917491972446442	-0.295413374900818	0.420406639575958	0.932151123046875	0.320798889160156	0.182611709594727	-0.611709654331207	0.173817411065102	-0.265227526426315	-0.741223931312561	-0.749992728233337	0.204584285616875	1.00148992919922	-0.0458938179016113	0.0424760437011719	1.13880002498627	-0.873916685581207	0.348544746637344	-0.793942034244537	-0.0253877639770508	-0.603033363819122	0.955535949707031	-0.261706878662109	0.17676350402832	0.610738396644592	-2.79662418365479	1.30990374088287	-0.680665969848633	-0.172371387481689	-0.61329048871994	0.973634643554688	-0.0088125772476196	0.202171417236328	0.874060809612274	-0.087749220430851	0.523109257221222	-0.849611222743988	0.5903400182724	-0.0849578082561493	0.987330505371094	-0.0224643058776855	-0.179206039428711	0.180936396121979	-0.265974640846252	-0.786807894706726	-0.791513025760651	-0.467775374650955	0.611818611621857	0.985882080078125	0.0566265258789063	-0.160635314941406	-1.3092714548111	0.262452512979507	0.17558915913105	-0.917964994907379	-0.677732586860657	-0.391600251197815	-0.515507934570313	-0.149882034301758	0.847086486816406	0.26901650428772	-0.42765137553215	-0.265627771615982	0.173348948359489	1.11962723731995	-0.882336854934692	0.994616333007812	-0.0815242080688477	-0.123071189880371	1.22497224807739	-0.260349899530411	-0.348707467317581	-0.762697577476501	0.275398254394531	-0.605959594249725	0.978941955566406	0.0146902370452881	-0.231448165893555	0.0909191370010376	0.179650291800499	0.0	-0.68067479133606	-0.871576130390167	0.403313517570496	-0.518515197753906	0.026864185333252	0.8593447265625	-0.265451669692993	0.522882461547852	0.0	-0.231941416859627	1.03465366363525	-1.11327087879181	0.977072265625	0.114253662109375	-0.178253005981445	-0.0860788747668266	0.0	0.604942858219147	-0.815917134284973	-0.423336893320084	1.00585043430328	0.989300476074219	-0.0264171524047852	-0.14988427734375	0.0	0.0	0.431451022624969	-0.898426413536072	0.479994982481003	-0.920400083065033
0.871578002929687	0.0488304786682129	-0.492188446044922	-2.01218032836914	1.39817595481873	-1.04927635192871	-0.749265730381012	0.447514116764069	0.537104785442352	0.948269287109375	0.174805206298828	0.307614440917969	0.523477494716644	1.3125079870224	0.436656832695007	-0.705064594745636	-0.65868216753006	-0.326410621404648	1.00732159423828	0.032718433380127	0.0385745010375977	1.48637354373932	0.262612611055374	-0.175658538937569	-0.916272103786469	-0.296636968851089	0.420406639575958	0.93992578125	0.323253723144531	0.187022201538086	-0.785302937030792	0.0	-0.869946300983429	-0.742437958717346	-0.74756646156311	0.203362345695496	1.00148992919922	-0.0463885650634766	0.0312526245117188	1.57325553894043	-1.83620703220367	1.31052815914154	-0.796394228935242	-0.0217247381806374	-0.587653458118439	0.956562377929687	-0.261706878662109	0.175299240112305	0.697105467319489	-2.53700280189514	0.964726448059082	-0.681870400905609	-0.168697983026505	-0.62011992931366	0.987781372070312	-0.0014508510828018	0.205530990600586	0.262516558170319	-0.350996881723404	0.0	-0.853264272212982	0.591303884983063	-0.0683597922325134	0.98682763671875	-0.0214828548431396	-0.176276504516602	0.0	0.349566668272018	-0.612678289413452	-0.791513025760651	-0.467775374650955	0.611818611621857	0.990729797363281	0.0595938568115234	-0.16893766784668	0.610079348087311	-0.170594125986099	0.0	-0.920642733573914	-0.677732586860657	-0.391366094350815	-0.508813018798828	-0.14410107421875	0.853094177246094	0.0	0.0814574062824249	0.0850008875131607	0.173348948359489	1.11962723731995	-0.882336854934692	0.99314501953125	-0.0790815353393555	-0.118124603271484	0.69875180721283	0.0	-0.523061215877533	-0.765397727489471	0.275145530700684	-0.605959594249725	0.976609558105469	0.011253924369812	-0.231448165893555	0.0	0.179650291800499	0.174994140863419	-0.68067479133606	-0.86913788318634	0.406020075082779	-0.515514831542969	0.0293540363311768	0.857844665527344	0.0838268399238586	-0.0804434567689896	0.522693037986755	-0.231941416859627	1.0344340801239	-1.11352622509003	0.987333251953125	0.123965225219727	-0.176264007568359	-0.172157749533653	0.262858092784882	-0.0864204093813896	-0.815917134284973	-0.423336893320084	1.00608801841736	0.993651062011719	-0.0239559268951416	-0.151877044677734	-0.521041333675385	-0.348125815391541	0.175276979804039	-0.897206902503967	0.477538615465164	-0.916272461414337
0.863765869140625	0.0405319175720215	-0.497571807861328	-1.57212686538696	1.66191458702087	-0.0868366658687592	-0.744152307510376	0.445305705070496	0.532717049121857	0.939946838378906	0.171885070800781	0.306160583496094	0.173641309142113	1.83555591106415	1.22469747066498	-0.711419522762299	-0.661134660243988	-0.318843692541122	1.00002044677734	0.0234543380737305	0.0454169387817383	1.48637354373932	0.35107159614563	-0.52247154712677	-0.915052235126495	-0.297846138477325	0.420406639575958	0.9350849609375	0.319332794189453	0.186044494628906	-0.611709654331207	0.263359725475311	-0.785073518753052	-0.743652045726776	-0.745109438896179	0.202155321836472	0.999028076171875	-0.0478492546081543	0.0400398101806641	0.526612758636475	-1.3992486000061	0.786316931247711	-0.798817157745361	-0.0180617123842239	-0.572273552417755	0.953611450195312	-0.263184173583984	0.179692031860352	0.610738396644592	-2.88316464424133	1.2213968038559	-0.683106541633606	-0.165043145418167	-0.626949429512024	0.980949157714844	-0.0039226715564727	0.197244049072266	0.0	-0.523469507694244	-0.263463795185089	-0.856946885585785	0.592287361621857	-0.0517617762088776	0.995544311523437	-0.0122136030197144	-0.181125381469727	-0.778026521205902	0.265974640846252	-0.612678289413452	-0.791513025760651	-0.467775374650955	0.611818611621857	0.992133117675781	0.0600884094238281	-0.159159332275391	0.178225427865982	-0.170594125986099	0.3511783182621	-0.92335045337677	-0.677732586860657	-0.39110592007637	-0.510407043457031	-0.146921051025391	0.853094177246094	0.0	-0.2647365629673	-0.520630419254303	0.173348948359489	1.11962723731995	-0.882336854934692	0.991673706054688	-0.0790815353393555	-0.121092552185059	1.39750361442566	0.0	-0.697414934635162	-0.768064141273499	0.274908572435379	-0.605959594249725	0.967279968261719	0.0097934913635253	-0.235866134643555	-0.262655287981033	0.0898251459002495	-0.0833305418491364	-0.68067479133606	-0.866699695587158	0.408693671226501	-0.513605529785156	0.026864185333252	0.8589697265625	-0.964008688926697	-0.341884702444077	-0.440701961517334	-0.231941416859627	1.03417801856995	-1.11378157138824	0.97415869140625	0.108826614379883	-0.173327850341797	0.0	-0.262858092784882	0.0	-0.815917134284973	-0.423336893320084	1.00635957717896	0.98872802734375	-0.0244481716156006	-0.14988427734375	-0.177627727389336	-0.435157269239426	0.350553959608078	-0.895987391471863	0.475111871957779	-0.91211599111557
0.868661499023437	0.0385810279846191	-0.485848052978516	-1.39823472499847	1.74862313270569	-0.786957323551178	-0.746585965156555	0.448971688747406	0.534185707569122	0.93896044921875	0.169430480957031	0.300289855957031	0.436656832695007	1.22451865673065	0.0867432802915573	-0.705317676067352	-0.659671425819397	-0.310299307107925	1.00488787841797	0.0317258529663086	0.0371130104064941	1.66506326198578	1.48721671104431	-0.698130071163177	-0.915052235126495	-0.295413374900818	0.421633154153824	0.939485717773437	0.318344055175781	0.191888946533203	0.090929813683033	0.263359725475311	0.0848728120326996	-0.746329188346863	-0.746337950229645	0.206536397337914	1.00583740234375	-0.0449278793334961	0.0371107482910156	0.789919078350067	-1.13658261299133	0.875544369220734	-0.800305962562561	-0.0192827209830284	-0.572273552417755	0.952649169921875	-0.265613464355469	0.173337417602539	0.438004314899445	-2.18628597259521	1.8320951461792	-0.683106541633606	-0.168939173221588	-0.632559359073639	0.982878234863281	-0.0053735227584838	0.202171417236328	1.22308850288391	-0.698967933654785	-0.263463795185089	-0.855709493160248	0.592523396015167	-0.0505300685763359	0.987330505371094	-0.022900505065918	-0.173346984863281	0.253310948610306	-0.440757989883423	-0.696518421173096	-0.791513025760651	-0.468986004590988	0.611818611621857	0.985371765136719	0.0586047477722168	-0.165985717773438	0.089112713932991	0.354310899972916	-0.263383746147156	-0.920642733573914	-0.681632876396179	-0.389883071184158	-0.513276306152344	-0.14551106262207	0.843771911621094	-0.26901650428772	0.0	0.435629546642303	0.172109723091125	1.11595273017883	-0.882336854934692	0.9951513671875	-0.0810153198242188	-0.120103240966797	0.69875180721283	0.348979651927948	0.697414934635162	-0.765397727489471	0.275145530700684	-0.61865645647049	0.979941589355469	0.0176111030578613	-0.229008407592773	-0.434391438961029	0.0898251459002495	-0.874970734119415	-0.679939985275269	-0.869381725788116	0.401861190795898	-0.51224169921875	0.0263400058746338	0.863844909667969	0.0	0.180997774004936	-0.0922399461269379	-0.229495316743851	1.03684866428375	-1.10692346096039	0.982392761230469	0.112825492858887	-0.176737579345703	-0.439002275466919	0.173374488949776	0.432102054357529	-0.818360507488251	-0.425776779651642	1.01440477371216	0.990216369628906	-0.0269093971252441	-0.155293197631836	0.260520666837692	-0.348125815391541	0.60672801733017	-0.895987391471863	0.477538615465164	-0.924816310405731
0.860328491210937	0.0405319175720215	-0.497063354492188	-1.31306302547455	1.48669099807739	-0.786957323551178	-0.749019622802734	0.452637642621994	0.535636067390442	0.939453674316406	0.169430480957031	0.299314483642578	0.523477494716644	1.39805316925049	0.699827134609222	-0.699215769767761	-0.658208191394806	-0.301754921674728	1.00294091796875	0.0244101581573486	0.0414974861145019	1.74628579616547	0.787837862968445	-0.698130071163177	-0.915052235126495	-0.292966246604919	0.422843545675278	0.9350849609375	0.31885546875	0.183111419677734	0.0	0.610994577407837	-0.434973150491714	-0.749037444591522	-0.74756646156311	0.210932374000549	1.00148992919922	-0.0473545036315918	0.0336888580322266	1.30994915962219	-1.31087505817413	0.17566654086113	-0.801765561103821	-0.0205037295818329	-0.572273552417755	0.951686889648438	-0.267583160400391	0.179692031860352	1.22147679328918	-2.53700280189514	1.39841079711914	-0.683106541633606	-0.172853752970695	-0.638189613819122	0.980466857910156	-0.0082752246856689	0.202171417236328	0.525033116340637	-1.04996478557587	-0.263463795185089	-0.854501664638519	0.592779099941254	-0.0493133813142776	0.98347509765625	-0.0210466556549072	-0.177690765380859	-0.705651938915253	-0.440757989883423	0.0	-0.791513025760651	-0.470221340656281	0.611818611621857	0.990219543457031	0.0595938568115234	-0.154300918579102	0.26048332452774	-0.0918583795428276	-0.614562094211578	-0.917964994907379	-0.685533225536346	-0.388660192489624	-0.510407043457031	-0.141563095092773	0.845636352539063	-0.443877220153809	0.346193969249725	0.0850008875131607	0.170905917882919	1.11231350898743	-0.882336854934692	0.995552673339844	-0.0820330963134766	-0.120597900390625	0.95754873752594	-0.526239156723022	-0.174353733658791	-0.762697577476501	0.275398254394531	-0.631353259086609	0.979441772460938	0.0176111030578613	-0.229997497558594	-0.434391438961029	-0.179650291800499	0.0	-0.679205179214478	-0.872063755989075	0.395028740167618	-0.510332397460938	0.0297471714019775	0.856907165527344	0.0	0.522882461547852	0.174231007695198	-0.227049216628075	1.03955578804016	-1.10010194778442	0.985306396484375	0.119680709838867	-0.177779434204102	0.0	0.0	-0.604942858219147	-0.820803880691528	-0.428216695785522	1.02244997024536	0.987812072753906	-0.0331445007324219	-0.160132766723633	-0.438148379325867	-0.0870314538478851	0.350553959608078	-0.895987391471863	0.479994982481003	-0.937487781047821
0.863765869140625	0.0478550338745117	-0.496584838867188	-0.787837862968445	1.31146740913391	-0.700120627880096	-0.750250101089478	0.450193673372269	0.535893082618713	0.93797412109375	0.175291885375977	0.302240631103516	-0.263015508651733	1.9235452413559	1.04974067211151	-0.698962688446045	-0.658208191394806	-0.301754921674728	1.00440112304688	0.0292995414733887	0.039548828125	1.22646117210388	0.525225222110748	-0.351317077875137	-0.915052235126495	-0.292966246604919	0.422843545675278	0.936991943359375	0.320321563720703	0.190911254882812	-0.173593282699585	0.263359725475311	-0.169745624065399	-0.749037444591522	-0.74756646156311	0.210932374000549	0.99949951171875	-0.0478492546081543	0.0390634536743164	0.263306379318237	-1.31087505817413	0.786316931247711	-0.801765561103821	-0.0205037295818329	-0.572013199329376	0.95021142578125	-0.256848297119141	0.181156295776367	0.0863670483231544	-2.71008372306824	1.39841079711914	-0.68336009979248	-0.172612562775612	-0.638189613819122	0.98239599609375	-0.007307991027832	0.190898193359375	0.176005408167839	0.0	0.0878212675452232	-0.856946885585785	0.590084314346313	-0.0629823356866837	0.984816101074219	-0.025844856262207	-0.177286682128906	-0.434247374534607	0.174783334136009	-0.174129605293274	-0.790036618709564	-0.4665647149086	0.611818611621857	0.983840881347656	0.0522991714477539	-0.160143310546875	-0.34959602355957	-0.262452512979507	0.438972890377045	-0.917964994907379	-0.685295045375824	-0.388660192489624	-0.515189147949219	-0.143114074707031	0.85164404296875	1.04916429519653	0.794209718704224	0.0	0.173348948359489	1.11619997024536	-0.882564783096313	0.991673706054688	-0.0806082077026367	-0.119608581542969	1.13870668411255	-0.697959303855896	-1.04612243175507	-0.762697577476501	0.275398254394531	-0.631353259086609	0.970778564453125	0.0078176112174987	-0.237778381347656	0.0	0.348072439432144	-0.783307135105133	-0.680419206619263	-0.873526692390442	0.396481037139893	-0.520424499511719	0.0239811992645264	0.862719848632812	-0.265451669692993	0.0	0.789163947105408	-0.227049216628075	1.03831195831299	-1.10816383361816	0.983912902832031	0.122108604431152	-0.174843276977539	0.0	0.0894836038351059	0.172840818762779	-0.818127810955048	-0.428216695785522	0.99926495552063	0.987812072753906	-0.0259249076843262	-0.151378845214844	0.0	-0.0870314538478851	0.350553959608078	-0.897206902503967	0.479994982481003	-0.928943932056427
0.866213684082031	0.0454091415405273	-0.486805084228516	-1.22434258460999	1.31146740913391	-1.39843213558197	-0.751453280448914	0.447749674320221	0.536131739616394	0.93606298828125	0.171885070800781	0.301762145996094	0.173641309142113	1.57403194904327	1.13648390769958	-0.698737740516663	-0.658208191394806	-0.301754921674728	1.00440112304688	0.0297774524688721	0.0414974861145019	1.39702868461609	0.699378848075867	-0.788211405277252	-0.915052235126495	-0.292966246604919	0.422843545675278	0.93405810546875	0.317866729736328	0.177245239257812	0.34718656539917	0.610994577407837	0.265227526426315	-0.749037444591522	-0.74756646156311	0.210932374000549	1.00002331542969	-0.0419829483032227	0.0434523963928223	1.22437465190887	-2.18479180335999	0.786316931247711	-0.801765561103821	-0.0205037295818329	-0.571771442890167	0.949249145507812	-0.262199310302734	0.186529998779297	0.610738396644592	-2.09974551200867	1.66393184661865	-0.683581948280334	-0.172371387481689	-0.638189613819122	0.98239599609375	-0.0068243737220764	0.202619369506836	-0.262516558170319	-1.57343423366547	0.263463795185089	-0.859362602233887	0.587409198284149	-0.0766663104295731	0.984313232421875	-0.0263901062011719	-0.175266326904297	0.0	0.615541338920593	0.174129605293274	-0.788560211658478	-0.462883412837982	0.611818611621857	0.992133117675781	0.0610775184631348	-0.158667343139648	-0.610079348087311	0.695499181747437	0.0877945795655251	-0.917964994907379	-0.685056865215302	-0.388660192489624	-0.512638671875	-0.141563095092773	0.849572448730469	0.618737936019897	-0.0814574062824249	0.0	0.17579197883606	1.12012183666229	-0.882821202278137	0.997023986816406	-0.0741961898803711	-0.122081871032715	0.612486124038696	0.0	-0.174353733658791	-0.762697577476501	0.275398254394531	-0.631353259086609	0.972111389160156	0.0097934913635253	-0.233426361083984	-0.262655287981033	-0.179650291800499	0.0833305418491364	-0.681633293628693	-0.874989569187164	0.39793336391449	-0.511150695800781	0.0317128429412842	0.8599072265625	-0.0838268399238586	0.522882461547852	0.0	-0.227049216628075	1.03710472583771	-1.1162257194519	0.979985900878906	0.11225422668457	-0.173801422119141	-0.172157749533653	0.609607040882111	0.0	-0.815422594547272	-0.428216695785522	0.976079881191254	0.991704711914063	-0.0259249076843262	-0.150880661010742	0.615776121616364	-0.348125815391541	-0.175276979804039	-0.898426413536072	0.479994982481003	-0.920400083065033
0.858870239257812	0.0395564727783203	-0.496584838867188	-0.699117362499237	1.39817595481873	-0.611474871635437	-0.751453280448914	0.447749674320221	0.536131739616394	0.943830627441406	0.178719848632813	0.304688293457031	0.699672341346741	0.87500536441803	0.261700063943863	-0.701409041881561	-0.659671425819397	-0.326410621404648	1.00148065185547	0.0292995414733887	0.0346771926879883	1.04777145385742	1.66137027740479	-0.175658538937569	-0.917710900306702	-0.295413374900818	0.420164555311203	0.93750537109375	0.324719787597656	0.185544784545898	0.264523088932037	0.784811973571777	0.169745624065399	-0.747543215751648	-0.746337950229645	0.206536397337914	0.995099670410156	-0.0517601203918457	0.0336888580322266	1.22437465190887	-1.31087505817413	0.0	-0.799079895019531	-0.0205037295818329	-0.585942506790161	0.952649169921875	-0.266598297119141	0.181156295776367	0.351637244224548	-2.35936689376831	1.48691773414612	-0.684564530849457	-0.175042942166328	-0.643799543380737	0.976046020507813	-0.0082752246856689	0.203141967773437	0.349027693271637	-1.74893271923065	-0.610930562019348	-0.859362602233887	0.587409198284149	-0.0764109566807747	0.989174438476563	-0.0185385055541992	-0.18062028503418	-0.180936396121979	1.2234833240509	0.264419049024582	-0.791000783443451	-0.462883412837982	0.609119951725006	0.978993103027344	0.0508155059814453	-0.163095260620117	-0.26048332452774	-0.787357568740845	0.0	-0.915527999401093	-0.685056865215302	-0.390143245458603	-0.515507934570313	-0.150446029663086	0.841700256347656	0.0	-0.0814574062824249	-0.265627771615982	0.17579197883606	1.12012183666229	-0.882821202278137	0.993680053710937	-0.0732801895141602	-0.109418601989746	-0.172531306743622	0.0	0.439674645662308	-0.763912618160248	0.272697180509567	-0.61865645647049	0.974110595703125	0.0087625970840454	-0.236327697753906	0.171736150979996	0.258247286081314	0.174994140863419	-0.681633293628693	-0.874989569187164	0.39793336391449	-0.520151733398437	0.0224086608886719	0.855969604492188	0.614730179309845	-0.442439019680023	0.440701961517334	-0.227049216628075	1.03589749336243	-1.1162257194519	0.970738342285156	0.107398445129395	-0.176737579345703	0.0	0.262858092784882	0.0	-0.81568443775177	-0.428216695785522	0.995123505592346	0.98872802734375	-0.0229714374542236	-0.156716613769531	0.177627727389336	0.0870314538478851	0.0808970630168915	-0.898426413536072	0.479994982481003	-0.920400083065033
0.856943237304687	0.0439386978149414	-0.490722961425781	-1.22434258460999	0.78760302066803	-0.786957323551178	-0.751453280448914	0.447749674320221	0.536131739616394	0.93507666015625	0.169917175292969	0.305166778564453	0.34983617067337	1.1365293264389	0.349913567304611	-0.704108536243439	-0.661134660243988	-0.351077288389206	1.00586138916016	0.0336742553710938	0.0361386833190918	1.48637354373932	0.961991488933563	-0.873788595199585	-0.920400857925415	-0.297846138477325	0.417485564947128	0.927750427246094	0.317866729736328	0.18945556640625	0.0	1.48534882068634	0.169745624065399	-0.746080160140991	-0.745109438896179	0.202155321836472	0.996094848632813	-0.0463885650634766	0.0478506393432617	0.434455513954163	0.088373601436615	0.0	-0.796394228935242	-0.0205037295818329	-0.600094974040985	0.948222717285156	-0.265121032714844	0.185051513671875	0.789641559123993	-2.62354326248169	1.2213968038559	-0.685547113418579	-0.177733063697815	-0.649409413337708	0.979502319335937	-0.0097798109054565	0.189927658081055	0.0865111351013184	-1.48568511009216	0.263463795185089	-0.859362602233887	0.587409198284149	-0.0761706233024597	0.985318969726563	-0.0263901062011719	-0.169912368774414	-0.180936396121979	0.699133336544037	0.0902894288301468	-0.793471574783325	-0.462883412837982	0.606449067592621	0.9814169921875	0.054648307800293	-0.155284896850586	-0.610079348087311	0.0	0.17558915913105	-0.913091003894806	-0.685056865215302	-0.391600251197815	-0.508175415039062	-0.143537078857422	0.853508544921875	-0.26901650428772	-0.42765137553215	0.0	0.17579197883606	1.12012183666229	-0.882821202278137	0.989266052246094	-0.0825419921875	-0.122081871032715	-0.172531306743622	-0.177259504795074	0.962735891342163	-0.765127718448639	0.270011901855469	-0.605959594249725	0.976109741210938	0.0092780437469482	-0.240218139648437	-0.171736150979996	0.0	0.174994140863419	-0.681633293628693	-0.874989569187164	0.39793336391449	-0.516605895996094	0.0283056774139404	0.869095092773438	-0.698557019233704	0.703880250453949	0.174231007695198	-0.227049216628075	1.03465366363525	-1.1162257194519	0.982899475097656	0.11668155670166	-0.177211151123047	0.0	0.609607040882111	0.604942858219147	-0.815917134284973	-0.428216695785522	1.01416718959808	0.989758422851562	-0.0200179672241211	-0.158709365844727	0.177627727389336	0.0870314538478851	0.0808970630168915	-0.898426413536072	0.479994982481003	-0.920400083065033
0.8618388671875	0.0483354759216309	-0.491201477050781	-0.699117362499237	0.261932194232941	-0.873793959617615	-0.750250101089478	0.447749674320221	0.535893082618713	0.93797412109375	0.174805206298828	0.303216003417969	0.699672341346741	1.1365293264389	0.786570429801941	-0.705317676067352	-0.65868216753006	-0.333494335412979	1.00196740722656	0.0366152381896973	0.0419846496582031	1.39702868461609	0.35107159614563	-0.0855772346258163	-0.918930768966675	-0.295413374900818	0.416016966104507	0.936551879882813	0.325197113037109	0.180178329467773	0.611709654331207	0.874354302883148	-0.265227526426315	-0.747543215751648	-0.750238418579102	0.203615680336952	1.00002331542969	-0.0415117607116699	0.036134391784668	0.87549364566803	-0.962290287017822	0.699877858161926	-0.797853827476501	-0.0229457467794418	-0.584715068340302	0.949698181152344	-0.260262451171875	0.185549087524414	0.962375640869141	-0.961054861545563	1.57542479038239	-0.684310972690582	-0.180181995034218	-0.636970043182373	0.983923217773437	-0.0058571395874023	0.203141967773437	0.262516558170319	-1.13771402835846	-0.0878212675452232	-0.858154714107513	0.591067850589752	-0.0639586895704269	0.98297216796875	-0.029770658493042	-0.174357162475586	-0.253310948610306	0.0911913067102432	-0.877097308635712	-0.793471574783325	-0.462883412837982	0.606449067592621	0.984351196289063	0.0561319732666016	-0.16647770690918	0.0	0.0	0.0	-0.916761577129364	-0.682853579521179	-0.391600251197815	-0.507218994140625	-0.142127090454102	0.846672180175781	0.0	-0.183279156684875	0.701257348060608	0.173348948359489	1.12111115455627	-0.884046375751495	0.997559020996094	-0.0688019561767578	-0.126434875488281	-0.526220500469208	0.0886297523975372	0.348707467317581	-0.762697577476501	0.275145530700684	-0.606197953224182	0.971111755371094	0.0054121923446655	-0.233426361083984	-0.0909191370010376	0.0898251459002495	0.0	-0.680419206619263	-0.873770475387573	0.400639921426773	-0.5171513671875	0.0243743343353271	0.8589697265625	0.698557019233704	-0.0804434567689896	-0.266470938920975	-0.227049216628075	1.03465366363525	-1.1162257194519	0.979479187011719	0.11225422668457	-0.172854278564453	-0.172157749533653	0.0894836038351059	0.0	-0.815917134284973	-0.427992343902588	1.01416718959808	0.984835388183594	-0.0254326629638672	-0.153300445556641	0.615776121616364	0.0870314538478851	0.525830924510956	-0.900865435600281	0.483635127544403	-0.916272461414337
0.855953674316406	0.0390614700317383	-0.491201477050781	-0.262612611055374	0.523864388465881	-1.2247588634491	-0.749019622802734	0.447749674320221	0.535636067390442	0.940933227539062	0.174805206298828	0.306160583496094	1.04950845241547	1.22451865673065	0.699827134609222	-0.706554889678955	-0.656250298023224	-0.315922349691391	1.00342767333984	0.0366152381896973	0.0405231552124023	1.66506326198578	1.22460412979126	-0.873788595199585	-0.917491972446442	-0.292966246604919	0.414548367261887	0.926283508300781	0.318344055175781	0.185066802978516	0.958896219730377	0.874354302883148	0.519845962524414	-0.749037444591522	-0.755367338657379	0.205076038837433	0.997090087890625	-0.0478492546081543	0.0341816864013672	0.961068272590637	-0.611250698566437	0.348544746637344	-0.799313426017761	-0.0253877639770508	-0.569335162639618	0.948222717285156	-0.261706878662109	0.179194473266602	0.172734096646309	-1.92210972309113	1.48691773414612	-0.683106541633606	-0.182612374424934	-0.62451034784317	0.990273132324219	-0.0053735227584838	0.200230331420898	-0.611544251441956	0.0	-0.263463795185089	-0.856946885585785	0.59472644329071	-0.0517617762088776	0.986324768066406	-0.0234457569122314	-0.177690765380859	-0.434247374534607	-0.615541338920593	-0.438548654317856	-0.793471574783325	-0.462883412837982	0.606449067592621	0.991240112304687	0.0586047477722168	-0.164571243286133	0.0	-0.879215896129608	-0.438972890377045	-0.920401990413666	-0.680650353431702	-0.391600251197815	-0.515189147949219	-0.143537078857422	0.842736083984375	0.524582147598267	0.692387938499451	0.435629546642303	0.170905917882919	1.12206506729126	-0.885242998600006	0.996087707519531	-0.0741961898803711	-0.121092552185059	-0.526220500469208	0.260349899530411	0.090967170894146	-0.760267376899719	0.280279129743576	-0.606436252593994	0.970278747558594	0.003436312675476	-0.235338607788086	0.525310575962067	0.0898251459002495	0.258324682712555	-0.679205179214478	-0.872551381587982	0.403313517570496	-0.512787231445312	0.0293540363311768	0.855407104492187	0.43310534954071	-0.261441230773926	-0.266470938920975	-0.227049216628075	1.03465366363525	-1.1162257194519	0.978085693359375	0.110826057434082	-0.186493194580078	0.0	0.0	0.0864204093813896	-0.815917134284973	-0.427739918231964	1.01416718959808	0.993193054199219	-0.0200179672241211	-0.152375228881836	0.177627727389336	0.0870314538478851	0.0	-0.903304517269135	0.487304836511612	-0.91211599111557
0.860849304199219	0.0415073623657227	-0.485848052978516	-0.787837862968445	0.523864388465881	-0.962439715862274	-0.752683758735657	0.447749674320221	0.535893082618713	0.941919555664062	0.176751953125	0.300786743164063	0.263015508651733	1.48604261875153	0.0	-0.7087482213974	-0.656250298023224	-0.317383021116257	0.998073425292969	0.0307700328826904	0.036625846862793	1.57571840286255	0.873532474040985	0.0	-0.917491972446442	-0.29174268245697	0.425780743360519	0.927750427246094	0.320321563720703	0.183589401245117	0.34718656539917	1.40107369422913	0.0	-0.745115101337433	-0.751466870307922	0.205076038837433	0.997561462402344	-0.0493099403381348	0.0458979339599609	0.789919078350067	-1.3992486000061	0.524211287498474	-0.797853827476501	-0.0217247381806374	-0.570804357528687	0.945335876464844	-0.261706878662109	0.184084823608398	0.351637244224548	-1.48485255241394	2.00910925865173	-0.686783254146576	-0.175284132361412	-0.628412902355194	0.98239599609375	-0.0097798109054565	0.198214599609375	-0.698055386543274	-1.57343423366547	-0.523109257221222	-0.856946885585785	0.59472644329071	-0.0559075251221657	0.994706176757812	-0.0234457569122314	-0.182640640258789	-0.615183770656586	0.0	0.0	-0.793712615966797	-0.467775374650955	0.61059445142746	0.982437622070312	0.0508155059814453	-0.169429656982422	-0.34959602355957	-0.170594125986099	0.0	-0.920401990413666	-0.680650353431702	-0.391600251197815	-0.514232727050781	-0.146921051025391	0.850193908691406	0.174860715866089	-0.0814574062824249	-0.350628674030304	0.173348948359489	1.12330174446106	-0.886724591255188	0.991673706054688	-0.0761299743652344	-0.115255577087402	0.0	0.348979651927948	0.265320897102356	-0.762461304664612	0.273929238319397	-0.620108127593994	0.977109375	0.0068726253509521	-0.235338607788086	-0.353574424982071	-0.179650291800499	0.349988281726837	-0.680419206619263	-0.8762087225914	0.393807470798492	-0.514151062011719	0.0283056774139404	0.855969604492188	0.0	0.0	-0.266470938920975	-0.22825400531292	1.03955578804016	-1.11742949485779	0.979479187011719	0.108826614379883	-0.177779434204102	0.0860788747668266	0.872465133666992	0.0	-0.819582223892212	-0.426758348941803	1.01708650588989	0.993651062011719	-0.0170644950866699	-0.156218414306641	-0.260520666837692	0.0870314538478851	0.256174057722092	-0.903304517269135	0.479728639125824	-0.921641230583191
0.866213684082031	0.0459041442871094	-0.487313507080078	-0.262612611055374	0.0	-0.786957323551178	-0.756347894668579	0.447749674320221	0.536131739616394	0.941426391601562	0.177238632202148	0.307135955810547	0.173641309142113	1.22451865673065	0.874783933162689	-0.7109414935112	-0.656250298023224	-0.318843692541122	1.00440112304688	0.0400341300964355	0.0410103225708008	1.22646117210388	0.35107159614563	-0.175658538937569	-0.917491972446442	-0.290533483028412	0.43701308965683	0.925770080566406	0.322742279052734	0.191888946533203	0.34718656539917	1.40107369422913	0.0	-0.741223931312561	-0.74756646156311	0.205076038837433	0.996566284179688	-0.0512653732299805	0.0419925155639648	0.3488809466362	-1.13658261299133	0.786316931247711	-0.796394228935242	-0.0180617123842239	-0.572273552417755	0.949249145507812	-0.259277587890625	0.184568176269531	0.172734096646309	-1.2252311706543	1.48691773414612	-0.690428256988525	-0.167974442243576	-0.632315456867218	0.9775732421875	-0.0107470455169678	0.201648818969727	-0.176005408167839	-1.04996478557587	0.263463795185089	-0.856946885585785	0.59472644329071	-0.0600532740354538	0.981966430664063	-0.0317335586547852	-0.176276504516602	-0.253310948610306	0.0	-0.0902894288301468	-0.793953657150269	-0.472667336463928	0.614739835262299	0.988816223144531	0.0527937278747559	-0.160143310546875	-0.34959602355957	0.262452512979507	-0.3511783182621	-0.920401990413666	-0.680650353431702	-0.391600251197815	-0.508175415039062	-0.140576095581055	0.841700256347656	0.349721431732178	0.2647365629673	0.170001775026321	0.17579197883606	1.12450301647186	-0.888177692890167	0.990737426757813	-0.0820330963134766	-0.125445556640625	-1.05244100093842	-0.437609404325485	0.523061215877533	-0.76465517282486	0.26757937669754	-0.633779942989349	0.974110595703125	0.0097934913635253	-0.237316802978516	0.353574424982071	0.437897592782974	-0.524982452392578	-0.681633293628693	-0.879893064498901	0.384268432855606	-0.515242065429688	0.0273883647918701	0.857469665527344	0.349278509616852	0.442439019680023	0.0922399461269379	-0.229495316743851	1.04442143440247	-1.11866974830627	0.979985900878906	0.114253662109375	-0.171907135009766	-0.439002275466919	0.788574278354645	-0.604942858219147	-0.823247253894806	-0.425776779651642	1.0200058221817	0.991704711914063	-0.0224791927337646	-0.152375228881836	0.698669075965881	0.696251630783081	0.0	-0.903304517269135	0.472182005643845	-0.931166470050812
0.860328491210937	0.0419878044128418	-0.493653900146484	0.436504751443863	-0.874311566352844	-0.786957323551178	-0.7539142370224	0.447749674320221	0.536131739616394	0.926260986328125	0.170890548706055	0.302737518310547	-0.0868206545710564	1.39805316925049	0.611613631248474	-0.7087482213974	-0.656497657299042	-0.339358985424042	0.995092102050781	0.0322405242919922	0.0444426116943359	1.39702868461609	0.35107159614563	0.0	-0.917710900306702	-0.290533483028412	0.43701308965683	0.930170837402344	0.325674438476563	0.182133712768555	0.090929813683033	0.874354302883148	-0.169745624065399	-0.741223931312561	-0.74756646156311	0.20483760535717	0.993633056640625	-0.0493099403381348	0.0434523963928223	1.04664278030396	-0.436958342790604	-0.17566654086113	-0.796394228935242	-0.0180617123842239	-0.572273552417755	0.938984924316406	-0.261706878662109	0.19238703918457	-0.438004314899445	-1.39831209182739	2.18612313270569	-0.6906818151474	-0.167733252048492	-0.632315456867218	0.985852294921875	-0.0034390544891357	0.201648818969727	0.262516558170319	-0.350996881723404	0.0878212675452232	-0.854501664638519	0.59594601392746	-0.0710485205054283	0.981463562011719	-0.0312973575592041	-0.182135559082031	0.0	0.524349987506866	-0.0902894288301468	-0.793953657150269	-0.473877966403961	0.598158299922943	0.987285339355469	0.0556374168395996	-0.165555221557617	0.089112713932991	-0.524905025959015	-0.7023566365242	-0.917964994907379	-0.679191470146179	-0.393057286739349	-0.516145568847656	-0.145934066772461	0.852058349609375	-0.443877220153809	1.0589462518692	0.966885089874268	0.17579197883606	1.12111115455627	-0.884046375751495	0.990737426757813	-0.0776566390991211	-0.124060508728027	0.439954817295074	0.177259504795074	0.348707467317581	-0.76465517282486	0.26757937669754	-0.633779942989349	0.969279174804688	0.0024054188728332	-0.238305892944336	0.0909191370010376	-0.258247286081314	0.0	-0.68067479133606	-0.8762087225914	0.393807470798492	-0.514696533203125	0.0263400058746338	0.861407287597656	0.0	-0.0804434567689896	0.440701961517334	-0.22825400531292	1.04442143440247	-1.11327087879181	0.977578979492188	0.110397605895996	-0.175316864013672	-0.0860788747668266	0.0894836038351059	-0.518522441387177	-0.819582223892212	-0.428216695785522	1.01172304153442	0.994109008789062	-0.0165722503662109	-0.157712982177734	0.260520666837692	0.0	0.0	-0.900865435600281	0.4748455286026	-0.925768852233887
0.8618388671875	0.0419878044128418	-0.490722961425781	0.088720478117466	0.0	-0.700120627880096	-0.751453280448914	0.447749674320221	0.536131739616394	0.930638000488281	0.169917175292969	0.303216003417969	0.0	1.04853987693787	0.786570429801941	-0.706554889678955	-0.656744956970215	-0.35986328125	0.991198120117188	0.0317258529663086	0.0439554481506348	1.57571840286255	0.35107159614563	-0.873788595199585	-0.917961120605469	-0.290533483028412	0.43701308965683	0.932591247558594	0.323731048583984	0.181634002685547	0.0	0.526719450950623	0.0	-0.741223931312561	-0.74756646156311	0.204584285616875	0.994628234863281	-0.0488387489318848	0.0302762699127197	0.789919078350067	-1.04820907115936	0.0	-0.796394228935242	-0.0180617123842239	-0.572273552417755	0.941422668457031	-0.261706878662109	0.1816396484375	0.610738396644592	-2.09974551200867	1.75243878364563	-0.690903663635254	-0.167473524808884	-0.632315456867218	0.988745971679687	-0.0053735227584838	0.199707733154297	0.0	-1.39793586730957	-0.0878212675452232	-0.852056443691254	0.597165584564209	-0.0820287466049194	0.986324768066406	-0.0287892074584961	-0.175771423339844	0.705651938915253	0.0911913067102432	0.438548654317856	-0.793953657150269	-0.475088596343994	0.581548988819122	0.989198974609375	0.0551428604125977	-0.162111282348633	0.877417504787445	-0.354310899972916	-0.3511783182621	-0.915527999401093	-0.677732586860657	-0.394540309906006	-0.514232727050781	-0.149882034301758	0.853508544921875	0.0941557735204697	0.0814574062824249	0.435629546642303	0.17579197883606	1.11768400669098	-0.879886507987976	0.987259704589844	-0.0815242080688477	-0.125940216064453	0.0	-0.260349899530411	0.0	-0.76465517282486	0.26757937669754	-0.633779942989349	0.972611145019531	0.0068726253509521	-0.245625198364258	0.262655287981033	-0.258247286081314	-0.258324682712555	-0.679684400558472	-0.872551381587982	0.403313517570496	-0.517969665527344	0.0283056774139404	0.862344848632812	0.0	-0.341884702444077	-0.0922399461269379	-0.227049216628075	1.04442143440247	-1.10790848731995	0.985306396484375	0.120537612915039	-0.169444549560547	0.525081157684326	0.262858092784882	0.518522441387177	-0.815917134284973	-0.430656582117081	1.00340628623962	0.993651062011719	-0.021986946105957	-0.151378845214844	0.876296758651733	-0.261094361543655	0.525830924510956	-0.898426413536072	0.477538615465164	-0.920400083065033
0.857411987304687	0.0429632530212402	-0.487792022705078	0.262612611055374	-0.437155783176422	-0.0868366658687592	-0.751453280448914	0.447749674320221	0.536131739616394	0.933103881835938	0.172858444213867	0.316889801025391	-0.612851679325104	0.699026584625244	0.174956783652306	-0.706554889678955	-0.656497657299042	-0.35986328125	0.99953369140625	0.0376078186035156	0.0390616645812988	1.22646117210388	1.74982929229736	0.0855772346258163	-0.919180989265442	-0.289309918880463	0.428717941045761	0.919462341308594	0.320798889160156	0.187500183105469	0.264523088932037	0.437177151441574	0.0	-0.742437958717346	-0.74756646156311	0.201663568615913	0.992166442871094	-0.0473545036315918	0.036617919921875	-0.0855745673179626	-0.611250698566437	0.0	-0.800043225288391	-0.0168407037854195	-0.585942506790161	0.946298156738281	-0.259277587890625	0.189458526611328	-0.0863670483231544	-1.92210972309113	2.00910925865173	-0.68700510263443	-0.172371387481689	-0.631095886230469	0.975563720703125	-0.0126815137863159	0.189479705810547	0.262516558170319	-0.175498440861702	0.175642535090446	-0.852056443691254	0.597165584564209	-0.0820287466049194	0.990180236816406	-0.0185385055541992	-0.178195846557617	-0.180936396121979	0.965107977390289	0.264419049024582	-0.789072394371033	-0.471184909343719	0.597907960414886	0.98090673828125	0.0581101913452148	-0.162111282348633	0.26048332452774	0.433046638965607	-0.17558915913105	-0.914294481277466	-0.680173993110657	-0.393057286739349	-0.505943786621094	-0.142550079345703	0.849158081054687	0.26901650428772	-0.2647365629673	-0.265627771615982	0.17579197883606	1.11768400669098	-0.879886507987976	0.987794738769531	-0.0771477508544922	-0.117234214782715	-1.13870668411255	0.526239156723022	0.523061215877533	-0.763676345348358	0.272697180509567	-0.62134313583374	0.964780944824219	0.0024054188728332	-0.238767471313477	0.0	-0.527722716331482	0.349988281726837	-0.679428815841675	-0.872551381587982	0.403313517570496	-0.514696533203125	0.0317128429412842	0.857844665527344	-0.0838268399238586	0.341884702444077	0.440701961517334	-0.227049216628075	1.03955578804016	-1.11352622509003	0.975552124023437	0.110397605895996	-0.171907135009766	-0.0860788747668266	0.609607040882111	0.0864204093813896	-0.814695417881012	-0.428216695785522	1.0046284198761	0.989758422851562	-0.021494701385498	-0.161129150390625	-0.177627727389336	0.522188723087311	0.0	-0.898426413536072	0.477538615465164	-0.920400083065033
0.857411987304687	0.0419878044128418	-0.487792022705078	-0.610396862030029	-0.175223603844643	-0.262319087982178	-0.751453280448914	0.447749674320221	0.536131739616394	0.940440002441406	0.178719848632813	0.317386688232422	0.0868206545710564	0.437502682209015	0.874783933162689	-0.706554889678955	-0.656250298023224	-0.35986328125	0.998073425292969	0.0385636367797852	0.0414974861145019	0.609169483184814	0.873532474040985	-0.0855772346258163	-0.920400857925415	-0.288086354732513	0.420406639575958	0.917995422363281	0.317866729736328	0.174811874389648	0.090929813683033	1.3115314245224	0.265227526426315	-0.743652045726776	-0.74756646156311	0.198727950453758	0.991695007324219	-0.0449278793334961	0.0336888580322266	0.177731797099113	-0.962290287017822	0.786316931247711	-0.803721487522125	-0.015619695186615	-0.599611461162567	0.945784973144531	-0.262199310302734	0.184084823608398	0.438004314899445	-1.66248834133148	1.39841079711914	-0.683106541633606	-0.177250698208809	-0.629876315593719	0.978055480957031	-0.0077916078567504	0.205083053588867	0.349027693271637	-0.435720264911652	-0.175642535090446	-0.852056443691254	0.597165584564209	-0.0820287466049194	0.988839172363281	-0.0293344573974609	-0.17476123046875	0.253310948610306	0.174783334136009	-0.348259210586548	-0.784191191196442	-0.467281222343445	0.614266872406006	0.983840881347656	0.0581101913452148	-0.161127304077148	-0.089112713932991	0.787357568740845	0.0	-0.913091003894806	-0.682615399360657	-0.391600251197815	-0.509769439697266	-0.142550079345703	0.847086486816406	1.49304151535034	-0.794209718704224	-0.350628674030304	0.17579197883606	1.11768400669098	-0.879886507987976	0.989266052246094	-0.0785726470947266	-0.126434875488281	-0.0862656533718109	0.0	0.174353733658791	-0.762697577476501	0.27783077955246	-0.608884632587433	0.9746103515625	0.0038658518791198	-0.242196334838867	0.0	-0.527722716331482	0.524982452392578	-0.679205179214478	-0.872551381587982	0.403313517570496	-0.517969665527344	0.0307955284118652	0.863282409667969	-0.349278509616852	0.0804434567689896	0.0	-0.227049216628075	1.03465366363525	-1.11914396286011	0.979985900878906	0.113253944396973	-0.180147308349609	0.0	0.262858092784882	0.432102054357529	-0.813473701477051	-0.425776779651642	1.00585043430328	0.99067431640625	-0.0175567417144775	-0.151877044677734	0.0	0.0870314538478851	-0.0808970630168915	-0.898426413536072	0.477538615465164	-0.920400083065033
0.859859741210937	0.0439386978149414	-0.490722961425781	0.0	-1.22475874423981	-0.262319087982178	-0.7539142370224	0.446527689695358	0.5349200963974	0.93846728515625	0.172858444213867	0.300786743164063	0.523477494716644	0.787015974521637	0.524870336055756	-0.706301808357239	-0.653818488121033	-0.337887316942215	0.990711364746094	0.0341889266967773	0.0434461402893066	1.04777145385742	0.262612611055374	-0.351317077875137	-0.922840595245361	-0.29174268245697	0.419196248054504	0.925770080566406	0.320798889160156	0.18945556640625	-0.438116371631622	0.610994577407837	0.0848728120326996	-0.743652045726776	-0.745109438896179	0.201901987195015	0.994156860351562	-0.0453990707397461	0.0488269958496094	0.87549364566803	-0.262665987014771	0.875544369220734	-0.800043225288391	-0.0168407037854195	-0.585942506790161	0.944822692871094	-0.257307891845703	0.1816396484375	0.0	-0.787973940372467	1.30990374088287	-0.683106541633606	-0.174801766872406	-0.624266445636749	0.979984619140625	-0.0048899054527282	0.196273513793945	-0.438521951436996	-0.786717116832733	0.0	-0.853264272212982	0.594962537288666	-0.0671431049704552	0.981966430664063	-0.0380584602355957	-0.189913940429688	1.04943108558655	-0.265974640846252	-0.0902894288301468	-0.784191191196442	-0.467528283596039	0.614266872406006	0.990729797363281	0.0576156349182129	-0.165555221557617	0.0	0.616763412952423	0.263383746147156	-0.913091003894806	-0.680173993110657	-0.390377402305603	-0.509769439697266	-0.147908050537109	0.842736083984375	0.26901650428772	-0.42765137553215	-0.0850008875131607	0.174552753567696	1.11619997024536	-0.881111681461334	0.987794738769531	-0.0752139663696289	-0.119113922119141	0.0	0.609329521656036	-0.090967170894146	-0.766612827777863	0.277593851089478	-0.60741126537323	0.976609558105469	0.0083330583572387	-0.236789276123047	0.434391438961029	0.0	-0.0833305418491364	-0.68067479133606	-0.874989569187164	0.406251132488251	-0.516060363769531	0.0254226913452148	0.856532104492188	-0.0838268399238586	-0.0804434567689896	0.440701961517334	-0.227049216628075	1.03465366363525	-1.11914396286011	0.985306396484375	0.117252822875977	-0.179673736572266	0.0860788747668266	0.525716185569763	0.172840818762779	-0.813473701477051	-0.42552438378334	1.00585043430328	0.997085693359375	-0.0121420450210571	-0.158211181640625	-0.438148379325867	0.261094361543655	0.525830924510956	-0.899645924568176	0.482658505439758	-0.914800345897675
0.867671936035156	0.0454091415405273	-0.489257507324219	0.787837862968445	-0.961020171642303	-0.437801539897919	-0.756347894668579	0.445305705070496	0.53369003534317	0.944817016601562	0.180179916381836	0.298835968017578	0.786493003368378	0.611037254333496	1.04974067211151	-0.706048727035522	-0.651365995407104	-0.315922349691391	0.998560180664062	0.0415046195983887	0.0454169387817383	1.74628579616547	0.0	0.6125528216362	-0.925280332565308	-0.295413374900818	0.417969733476639	0.927236999511719	0.324208374023437	0.189933547973633	-0.958896219730377	0.347634822130203	0.0	-0.743652045726776	-0.742683172225952	0.205076038837433	0.992690185546875	-0.0444331321716309	0.036134391784668	0.263306379318237	-0.699624300003052	0.524211287498474	-0.796394228935242	-0.0180617123842239	-0.572273552417755	0.942898132324219	-0.261706878662109	0.190425216674805	0.789641559123993	-1.04759538173676	2.4516441822052	-0.683106541633606	-0.172371387481689	-0.618656516075134	0.978055480957031	-0.0102634286880493	0.194332427978516	0.176005408167839	-0.523469507694244	0.874394357204437	-0.854501664638519	0.592779099941254	-0.0522424429655075	0.988839172363281	-0.0263901062011719	-0.177286682128906	0.0904681980609894	0.174783334136009	-0.348259210586548	-0.784191191196442	-0.467775374650955	0.614266872406006	0.980523986816406	0.0527937278747559	-0.158667343139648	0.0	-0.262452512979507	-0.263383746147156	-0.913091003894806	-0.677732586860657	-0.389154553413391	-0.502436920166016	-0.139166107177734	0.850608215332031	0.874303579330444	0.346193969249725	-0.966885089874268	0.173348948359489	1.11475145816803	-0.882336854934692	0.980036865234375	-0.0825419921875	-0.127918853759766	-0.439954817295074	0.0886297523975372	0.61402839422226	-0.770494282245636	0.27734112739563	-0.605959594249725	0.974110595703125	0.0054121923446655	-0.239229049682617	0.0	-0.258247286081314	0.699976563453674	-0.682144463062286	-0.877454876899719	0.409188777208328	-0.514696533203125	0.0288298568725586	0.8584072265625	-0.349278509616852	0.180997774004936	-0.266470938920975	-0.227049216628075	1.03465366363525	-1.11914396286011	0.976565551757812	0.11225422668457	-0.177211151123047	-0.439002275466919	0.0	0.878607511520386	-0.813473701477051	-0.425300031900406	1.00585043430328	0.98827001953125	-0.0224791927337646	-0.150880661010742	-0.260520666837692	-0.0870314538478851	-0.0808970630168915	-0.900865435600281	0.48777836561203	-0.90917181968689
0.867203186035156	0.0488304786682129	-0.491709930419922	0.873009502887726	-1.31146740913391	-0.437801539897919	-0.755117416381836	0.445305705070496	0.539069175720215	0.933597106933594	0.167483734130859	0.299314483642578	0.962687849998474	1.48604261875153	1.57314085960388	-0.703602373600006	-0.65357118844986	-0.313231647014618	0.989251159667969	0.0292995414733887	0.0444426116943359	1.39702868461609	0.699378848075867	0.0	-0.918930768966675	-0.292966246604919	0.4233438372612	0.922836242675781	0.31885546875	0.182611709594727	-0.438116371631622	0.700536847114563	0.0	-0.746329188346863	-0.744126677513123	0.202155321836472	0.992690185546875	-0.0478492546081543	0.038087100982666	0.0855745673179626	-1.04820907115936	1.13765001296997	-0.800305962562561	-0.0192827209830284	-0.569093406200409	0.942384948730469	-0.261706878662109	0.186032424926758	0.0	-1.13869059085846	1.30990374088287	-0.685547113418579	-0.175042942166328	-0.617193043231964	0.9775732421875	-0.0121978960037231	0.207546737670898	0.176005408167839	-2.44790053367615	0.0	-0.853264272212982	0.595218241214752	-0.0522424429655075	0.990180236816406	-0.0293344573974609	-0.176781600952148	0.180936396121979	0.440757989883423	0.522388815879822	-0.78663182258606	-0.470221340656281	0.603277444839478	0.992643432617187	0.0629321022033691	-0.175764053344727	-0.089112713932991	-0.433046638965607	-0.263383746147156	-0.913091003894806	-0.677732586860657	-0.389154553413391	-0.515507934570313	-0.152843017578125	0.849572448730469	0.0941557735204697	0.183279156684875	-0.170001775026321	0.170905917882919	1.11839056015015	-0.881111681461334	1.00384558105469	-0.0635094947814941	-0.116739555358887	-0.258796960115433	-0.437609404325485	0.174353733658791	-0.765127718448639	0.276361793279648	-0.620108127593994	0.968279541015625	-0.0014604328870773	-0.241668823242187	0.0	-0.437897592782974	0.0833305418491364	-0.679684400558472	-0.874989569187164	0.406251132488251	-0.514151062011719	0.0248985137939453	0.866657531738281	0.181624829769135	-1.30720615386963	-0.614932954311371	-0.227049216628075	1.03589749336243	-1.12034785747528	0.977578979492188	0.112825492858887	-0.177779434204102	0.0860788747668266	0.699090659618378	0.0864204093813896	-0.81713879108429	-0.426758348941803	0.995123505592346	0.999947937011719	-0.0146032705307007	-0.150880661010742	-0.521041333675385	0.348125815391541	0.60672801733017	-0.900865435600281	0.483635127544403	-0.9245565533638
