head_ACCEL_x	head_ACCEL_y	head_ACCEL_z	head_GYRO_x	head_GYRO_y	head_GYRO_z	head_MAGN_x	head_MAGN_y	head_MAGN_z	sternum_ACCEL_x	sternum_ACCEL_y	sternum_ACCEL_z	sternum_GYRO_x	sternum_GYRO_y	sternum_GYRO_z	sternum_MAGN_x	sternum_MAGN_y	sternum_MAGN_z	left_upper_arm_ACCEL_x	left_upper_arm_ACCEL_y	left_upper_arm_ACCEL_z	left_upper_arm_GYRO_x	left_upper_arm_GYRO_y	left_upper_arm_GYRO_z	left_upper_arm_MAGN_x	left_upper_arm_MAGN_y	left_upper_arm_MAGN_z	left_fore_arm_ACCEL_x	left_fore_arm_ACCEL_y	left_fore_arm_ACCEL_z	left_fore_arm_GYRO_x	left_fore_arm_GYRO_y	left_fore_arm_GYRO_z	left_fore_arm_MAGN_x	left_fore_arm_MAGN_y	left_fore_arm_MAGN_z	right_upper_arm_ACCEL_x	right_upper_arm_ACCEL_y	right_upper_arm_ACCEL_z	right_upper_arm_GYRO_x	right_upper_arm_GYRO_y	right_upper_arm_GYRO_z	right_upper_arm_MAGN_x	right_upper_arm_MAGN_y	right_upper_arm_MAGN_z	right_fore_arm_ACCEL_x	right_fore_arm_ACCEL_y	right_fore_arm_ACCEL_z	right_fore_arm_GYRO_x	right_fore_arm_GYRO_y	right_fore_arm_GYRO_z	right_fore_arm_MAGN_x	right_fore_arm_MAGN_y	right_fore_arm_MAGN_z	pelvis_ACCEL_x	pelvis_ACCEL_y	pelvis_ACCEL_z	pelvis_GYRO_x	pelvis_GYRO_y	pelvis_GYRO_z	pelvis_MAGN_x	pelvis_MAGN_y	pelvis_MAGN_z	left_thigh_ACCEL_x	left_thigh_ACCEL_y	left_thigh_ACCEL_z	left_thigh_GYRO_x	left_thigh_GYRO_y	left_thigh_GYRO_z	left_thigh_MAGN_x	left_thigh_MAGN_y	left_thigh_MAGN_z	left_shank_ACCEL_x	left_shank_ACCEL_y	left_shank_ACCEL_z	left_shank_GYRO_x	left_shank_GYRO_y	left_shank_GYRO_z	left_shank_MAGN_x	left_shank_MAGN_y	left_shank_MAGN_z	left_foot_ACCEL_x	left_foot_ACCEL_y	left_foot_ACCEL_z	left_foot_GYRO_x	left_foot_GYRO_y	left_foot_GYRO_z	left_foot_MAGN_x	left_foot_MAGN_y	left_foot_MAGN_z	right_thigh_ACCEL_x	right_thigh_ACCEL_y	right_thigh_ACCEL_z	right_thigh_GYRO_x	right_thigh_GYRO_y	right_thigh_GYRO_z	right_thigh_MAGN_x	right_thigh_MAGN_y	right_thigh_MAGN_z	right_shank_ACCEL_x	right_shank_ACCEL_y	right_shank_ACCEL_z	right_shank_GYRO_x	right_shank_GYRO_y	right_shank_GYRO_z	right_shank_MAGN_x	right_shank_MAGN_y	right_shank_MAGN_z	right_foot_ACCEL_x	right_foot_ACCEL_y	right_foot_ACCEL_z	right_foot_GYRO_x	right_foot_GYRO_y	right_foot_GYRO_z	right_foot_MAGN_x	right_foot_MAGN_y	right_foot_MAGN_z	left_ankle_ACCEL_x	left_ankle_ACCEL_y	left_ankle_ACCEL_z	left_ankle_GYRO_x	left_ankle_GYRO_y	left_ankle_GYRO_z	left_ankle_MAGN_x	left_ankle_MAGN_y	left_ankle_MAGN_z	right_ankle_ACCEL_x	right_ankle_ACCEL_y	right_ankle_ACCEL_z	right_ankle_GYRO_x	right_ankle_GYRO_y	right_ankle_GYRO_z	right_ankle_MAGN_x	right_ankle_MAGN_y	right_ankle_MAGN_z
0.895023681640625	0.0751998138427734	-0.444825897216797	4.46090269088745	2.79763269424438	0.0877732336521149	-0.783434689044952	0.413091391324997	0.526362478733063	0.940923583984375	0.177740478515625	0.295411285400391	3.23650169372559	0.0	-0.262052267789841	-0.702891051769257	-0.663578927516937	-0.329104751348495	1.00340887451172	0.0380903205871582	0.0307618236541748	4.37148332595825	-2.27320265769958	1.74808955192566	-0.908937871456146	-0.31371659040451	0.425538420677185	0.929663208007813	0.335934600830078	0.155273651123047	3.4964005947113	-2.44908547401428	2.62459993362427	-0.720469415187836	-0.781240999698639	0.199948757886887	0.996114196777344	-0.0527398567199707	-0.0122079105377197	2.18756675720215	0.0	-1.22462272644043	-0.810050368309021	-0.0376022309064865	-0.562493026256561	0.959477783203125	-0.272461578369141	0.159668899536133	2.27367234230042	-2.62220358848572	-0.611037254333496	-0.710922837257385	-0.174802750349045	-0.617189824581146	0.984889831542969	-0.0112324504852295	0.178211807250977	2.36025547981262	1.66166913509369	-0.263279676437378	-0.856946647167206	0.589841365814209	-0.0710475444793701	0.975555725097656	-0.0136309852600098	-0.187455413818359	-0.877075910568237	0.527653336524963	0.526239156723022	-0.774406373500824	-0.480704098939896	0.627438902854919	0.9814033203125	0.0849433975219726	-0.15089338684082	0.871269762516022	1.22111117839813	0.875474989414215	-0.892570316791534	-0.694822251796722	-0.423346608877182	-0.509261169433594	-0.150834197998047	0.847168823242187	0.0873169600963593	0.0	-0.347015798091888	0.170884415507317	1.13818299770355	-0.884047746658325	0.987838012695312	-0.0762215270996094	-0.135750732421875	0.616573989391327	-0.0857293233275414	-1.30897521972656	-0.788078427314758	0.260011404752731	-0.596684515476227	0.973152038574219	-0.0009692010879516	-0.230935958862305	0.348504722118378	0.611277401447296	-0.963971316814423	-0.702885448932648	-0.84522020816803	0.438950896263123	-0.521975830078125	0.0190248184204102	0.854448791503906	0.179709002375603	-0.0901613458991051	0.170455396175385	-0.133052051067352	1.06518387794495	-1.09423410892487	0.975589416503906	0.115267379760742	-0.199711517333984	-0.0842911154031754	0.0886297523975372	0.256355464458466	-0.781751871109009	-0.434565454721451	1.03565692901611	0.983890014648438	-0.0282789173126221	-0.170392532348633	-0.432283520698547	-0.0857053101062775	1.48775565624237	-0.929697155952454	0.418205261230469	-0.905268251895905
0.899431579589844	0.0805731582641602	-0.439448333740234	4.5459623336792	4.02125215530396	0.700235366821289	-0.783196926116943	0.411625057458878	0.520994126796722	0.936514770507813	0.178703308105469	0.296879089355469	3.32346367835999	-0.873855292797089	0.349782824516296	-0.70654034614563	-0.661133527755737	-0.31299364566803	1.00098187255859	0.0351537475585937	0.0249062633514404	4.28504180908203	-2.97212266921997	1.57428812980652	-0.910155415534973	-0.3125039935112	0.421391636133194	0.933115295410156	0.340334442138672	0.166995254516602	3.67279553413391	-3.1472156047821	2.35957527160645	-0.71925014257431	-0.782726109027863	0.192387014627457	1.00246008300781	-0.0390671615600586	-0.0122079105377197	0.788435518741608	-0.349748104810715	-0.700032591819763	-0.806165516376495	-0.0400400310754776	-0.561034083366394	0.955100402832031	-0.274899780273437	0.167484954833984	2.27367234230042	-2.09776282310486	-1.05098402500153	-0.710922837257385	-0.178705051541328	-0.636715948581696	0.985367919921875	-0.0122042150497437	0.187494674682617	1.48622941970825	0.962426364421844	0.438799470663071	-0.856946647167206	0.589841365814209	-0.0712940767407417	0.981916259765625	-0.0181247158050537	-0.202613159179688	-0.173587948083878	0.263826668262482	-0.0877065286040306	-0.771977841854095	-0.484384566545486	0.621574699878693	0.983911254882813	0.0859539184570313	-0.147957077026367	-0.347146540880203	0.958629369735718	0.348307251930237	-0.892570316791534	-0.694822251796722	-0.423346608877182	-0.504912658691406	-0.143581604003906	0.847168823242187	0.0	0.433663010597229	-0.173507899045944	0.168468967080116	1.13426613807678	-0.885238587856293	0.993150573730469	-0.072802619934082	-0.135243789672852	0.616573989391327	-0.437670767307281	-0.876766443252563	-0.788078427314758	0.261225372552872	-0.596684515476227	0.978067932128906	0.0009692010879516	-0.228024765014648	0.0	0.788745045661926	-0.0889819636940956	-0.704102337360382	-0.842781484127045	0.448742598295212	-0.521444641113281	0.020534725189209	0.858453735351563	-0.263573199510574	0.18032269179821	0.0	-0.129411056637764	1.06298613548279	-1.09569799900055	0.979518493652344	0.11819889831543	-0.207052047729492	-0.615325152873993	0.262196362018585	0.0	-0.779309809207916	-0.432134747505188	1.03125524520874	0.982954467773438	-0.0273104610443115	-0.166991241455078	0.353686511516571	-0.0857053101062775	0.091554194688797	-0.933609902858734	0.417000114917755	-0.903811633586884
0.903310546875	0.0810591888427734	-0.443859436035156	4.37111759185791	2.62243580818176	1.48629343509674	-0.783434689044952	0.411859691143036	0.52074933052063	0.937999389648438	0.180662155151367	0.306155639648438	3.58434987068176	0.0	-0.262052267789841	-0.705323934555054	-0.659921169281006	-0.314695298671722	1.00098187255859	0.0366220321655273	0.027345121383667	3.84665846824646	-3.32158255577087	1.22416651248932	-0.911622703075409	-0.313965082168579	0.418453067541122	0.928198669433594	0.331534729003906	0.162594512939453	3.23810791969299	-3.32174801826477	2.79558372497559	-0.716561496257782	-0.776380658149719	0.191898331046104	1.00099200439453	-0.0478463020324707	0.0043935923576355	1.31254005432129	0.611176013946533	-1.39832806587219	-0.806165516376495	-0.0400400310754776	-0.56128317117691	0.95603173828125	-0.273921508789063	0.159176559448242	2.4499979019165	-1.83554255962372	-0.435058534145355	-0.710922837257385	-0.174561247229576	-0.620109796524048	0.987280090332031	-0.0078026947975158	0.186044235229492	1.3129643201828	1.22302973270416	0.0	-0.855698704719543	0.597175180912018	-0.0522494502365589	0.981455383300781	-0.0194728355407715	-0.201639724731445	0.264950007200241	0.610570311546326	0.438532650470734	-0.776864945888519	-0.484384566545486	0.626213908195496	0.9882431640625	0.0854783782958984	-0.152361541748047	-0.176976665854454	0.0	0.263583868741989	-0.893803596496582	-0.69360888004303	-0.420417129993439	-0.511677032470703	-0.145541763305664	0.854523620605469	-1.22243738174438	-0.346930384635925	0.0	0.168468967080116	1.13426613807678	-0.885238587856293	0.989779113769531	-0.0781320953369141	-0.13963737487793	1.48926329612732	-0.699370801448822	-0.963208198547363	-0.789292514324188	0.258781641721725	-0.593752384185791	0.979013244628906	-0.0004846005439758	-0.231465255737305	0.178961873054504	0.611277401447296	-0.437494665384293	-0.704102337360382	-0.842781484127045	0.448742598295212	-0.520913452148438	0.0180182132720947	0.855989135742187	-0.611010611057281	-0.18032269179821	-0.435608208179474	-0.13062472641468	1.0639750957489	-1.09569799900055	0.978013732910156	0.115267379760742	-0.206562683105469	0.0842911154031754	0.173566594719887	-0.170903652906418	-0.778074383735657	-0.43554300069809	1.03663504123688	0.991187072753906	-0.0229524078369141	-0.1626064453125	0.785970032215118	-0.350612640380859	0.0	-0.92845219373703	0.413329988718033	-0.899907827377319
0.899431579589844	0.0742142486572266	-0.441901702880859	4.28605794906616	3.23493528366089	1.48629343509674	-0.783702075481415	0.412108957767487	0.520504593849182	0.935525024414062	0.175300231933594	0.292974700927734	2.88487243652344	-0.262025594711304	0.0	-0.704107522964478	-0.658688187599182	-0.316407859325409	1.00098187255859	0.0395586051940918	0.0244115886688232	4.89630842208862	-3.05948758125305	1.57428812980652	-0.913089990615845	-0.315426170825958	0.415529429912567	0.939967224121094	0.340810089111328	0.162594512939453	3.14991044998169	-3.1472156047821	1.92356669902802	-0.713872790336609	-0.770008265972137	0.191409647464752	1.00487530517578	-0.0415058135986328	-0.0195305652618408	1.5723135471344	-0.0865538269281387	-1.31147539615631	-0.806165516376495	-0.0400400310754776	-0.561532258987427	0.953144592285156	-0.272461578369141	0.168949691772461	2.36183500289917	-1.66198658943176	-0.699026584625244	-0.710922837257385	-0.170404717326164	-0.60352349281311	0.98781787109375	-0.0088030405044555	0.185045028686523	1.6594945192337	1.57394123077393	0.0877598896622658	-0.854480385780334	0.604490041732788	-0.0332048274576664	0.988737670898437	-0.0127322387695312	-0.193852264404297	-0.0913620740175247	0.173371821641922	0.350826114416122	-0.781751990318298	-0.484384566545486	0.630853116512299	0.989269104003906	0.0820307159423828	-0.141595092773437	-0.176976665854454	0.262481868267059	0.174153625965118	-0.895006000995636	-0.692395508289337	-0.417487651109695	-0.505395812988281	-0.140641372680664	0.84417236328125	-0.0873169600963593	0.0	-0.173507899045944	0.168468967080116	1.13426613807678	-0.885238587856293	1.00193682861328	-0.0693837127685547	-0.1381728515625	1.6600067615509	-0.523400068283081	-0.963208198547363	-0.790539383888245	0.256353706121445	-0.59082019329071	0.979485961914062	0.0004846005439758	-0.224584289550781	0.433276116847992	0.17746764421463	0.348512709140778	-0.704102337360382	-0.842781484127045	0.448742598295212	-0.524985900878906	0.0161056671142578	0.858915893554687	-0.0838641971349716	0.522935807704926	0.0	-0.131838381290436	1.06492745876312	-1.09569799900055	0.975589416503906	0.114212036132812	-0.20215837097168	0.0	0.697959303855896	-0.439466536045074	-0.776867747306824	-0.438977688550949	1.04198217391968	0.989783813476563	-0.0298284454345703	-0.172851303100586	0.0	-0.611624300479889	0.354772508144379	-0.923330128192902	0.409659832715988	-0.8960040807724
0.901855895996094	0.0756858444213867	-0.450203460693359	5.24534130096436	2.71072387695312	0.786058068275452	-0.784920334815979	0.413325995206833	0.519280791282654	0.939933898925781	0.178221893310547	0.304687835693359	3.41042590141296	-0.787386894226074	-0.174321725964546	-0.704107522964478	-0.658688187599182	-0.329584687948227	1.01073571777344	0.0454104690551758	0.0244115886688232	4.28504180908203	-2.88475775718689	1.92440986633301	-0.913089990615845	-0.31299102306366	0.415529429912567	0.93698583984375	0.333484954833984	0.151366439819336	2.8853178024292	-3.67081308364868	2.53910803794861	-0.714122891426086	-0.769765257835388	0.191898331046104	1.00099200439453	-0.0507889366149902	-0.0048852562904357	1.75005340576172	0.261427879333496	-1.57377052307129	-0.808843731880188	-0.0351532995700836	-0.550536453723907	0.955566101074219	-0.271483306884766	0.167964996337891	2.53352046012878	-0.348998337984085	-0.523047864437103	-0.710922837257385	-0.172845244407654	-0.60205352306366	0.986323974609375	-0.0073168125152587	0.194327911376953	0.785468399524689	1.48621332645416	-0.522743701934814	-0.854480385780334	0.600823104381561	-0.03442208096385	0.985326965332031	-0.02007200050354	-0.195381942749023	0.173587948083878	0.701025187969208	0.350826114416122	-0.780522763729095	-0.485596418380737	0.630618572235107	0.98288525390625	0.0820307159423828	-0.148935852050781	-0.2654649913311	-0.0912980362772942	0.437737494707108	-0.895006000995636	-0.696035623550415	-0.414804369211197	-0.516186645507812	-0.145541763305664	0.847713623046875	-0.785852611064911	0.0	0.0	0.172109141945839	1.13694798946381	-0.87452095746994	0.996624206542969	-0.0712942810058594	-0.140144332885742	0.787317514419556	0.0	-0.438383221626282	-0.790539383888245	0.257567673921585	-0.589589953422546	0.98581982421875	0.0014538016319274	-0.226542709350586	0.612237989902496	0.266201466321945	-0.786007344722748	-0.702885448932648	-0.842781484127045	0.447263985872269	-0.511175140380859	0.0234538764953613	0.858453735351563	0.0838641971349716	-0.18032269179821	0.170455396175385	-0.134265705943108	1.06371867656708	-1.09960174560547	0.977010559082031	0.109873382568359	-0.208030792236328	-0.345593601465225	0.87521880865097	-0.0854518264532089	-0.780516505241394	-0.43675833940506	1.04100406169891	0.994648498535156	-0.0234366359710693	-0.166991241455078	0.432283520698547	0.17530632019043	0.434882432222366	-0.923330128192902	0.409659832715988	-0.8960040807724
0.898946716308594	0.0771439361572266	-0.438481872558594	4.46090269088745	3.49704074859619	1.13715100288391	-0.786138594150543	0.414557695388794	0.518073320388794	0.942858093261719	0.184563247680664	0.301752197265625	2.88487243652344	-0.262025594711304	-0.174321725964546	-0.704107522964478	-0.658688187599182	-0.342772454023361	1.00148559570313	0.0336854629516602	0.0283229656219482	4.11215829849243	-2.79739260673523	1.83624970912933	-0.913089990615845	-0.310545921325684	0.415529429912567	0.936044372558594	0.334483825683594	0.161127593994141	3.06171298027039	-2.36181926727295	2.35957527160645	-0.714341759681702	-0.769522249698639	0.192387014627457	1.00099200439453	-0.0517643966674805	-0.0043935923576355	1.5723135471344	-0.174874052405357	-1.13603293895721	-0.811521887779236	-0.0302777010947466	-0.539558470249176	0.951654418945313	-0.278316284179688	0.167964996337891	1.66117286682129	-1.22432386875153	-0.523047864437103	-0.710922837257385	-0.175298482179642	-0.600583612918854	0.9838740234375	-0.0136618604660034	0.180177963256836	1.22440659999847	1.22302973270416	-0.175519779324532	-0.854480385780334	0.597175180912018	-0.0356393344700336	0.98385205078125	-0.0205213737487793	-0.199275680541992	0.347175896167755	0.0904548615217209	-0.263119578361511	-0.779293477535248	-0.486808270215988	0.630383968353271	0.984367248535156	0.0791180267333984	-0.148446472167969	0.347146540880203	-0.0912980362772942	0.0894302427768707	-0.895006000995636	-0.699705362319946	-0.412121057510376	-0.508294830322266	-0.145541763305664	0.853025451660156	0.0	0.0	-0.260261833667755	0.175783351063728	1.13966512680054	-0.863772034645081	0.993661437988281	-0.0707914962768555	-0.133328628540039	1.13829040527344	-0.17597071826458	-0.172883525490761	-0.790539383888245	0.258781641721725	-0.58838015794754	0.974570068359375	0.0019384021759033	-0.22410791015625	-0.612237989902496	1.1338210105896	0.0	-0.701668500900269	-0.842781484127045	0.445785373449326	-0.521975830078125	0.0126832122802734	0.850135681152344	0.69487476348877	-0.522935807704926	-0.170455396175385	-0.136727705597878	1.06251001358032	-1.10350549221039	0.975087829589844	0.113742988586426	-0.207541427612305	-1.04520988464355	0.0886297523975372	-0.354014694690704	-0.784193933010101	-0.434565454721451	1.04002594947815	0.987351440429687	-0.0298284454345703	-0.17235954284668	0.785970032215118	-0.611624300479889	0.961319029331207	-0.923330128192902	0.409659832715988	-0.8960040807724
0.895508544921875	0.0717840957641602	-0.434070770263672	4.5459623336792	4.02125215530396	1.22492432594299	-0.784920334815979	0.414557695388794	0.522217929363251	0.933590576171875	0.183102416992187	0.302735656738281	2.62398624420166	0.0877785682678223	-0.262052267789841	-0.704107522964478	-0.658688187599182	-0.342532485723495	1.00194354248047	0.0419844703674316	0.0214895610809326	4.01954174041748	-2.53529763221741	1.31232666969299	-0.912840247154236	-0.310307383537292	0.41576811671257	0.937508911132813	0.336434020996094	0.153806732177734	2.53252792358398	-2.71088433265686	1.75258302688599	-0.718030869960785	-0.775867640972137	0.201414808630943	0.992657104492187	-0.0522521286010742	-0.0097652826309204	2.00982689857483	-0.349748104810715	-1.22462272644043	-0.812757968902588	-0.0366226583719254	-0.547120332717896	0.951188720703125	-0.272461578369141	0.170414428710938	1.74933564662933	0.0	-0.699026584625244	-0.710922837257385	-0.175540000200272	-0.600583612918854	0.985367919921875	-0.0058591661453247	0.185045028686523	1.92516767978668	0.175455749034882	-0.351039558649063	-0.852043867111206	0.596187233924866	-0.0493218787014484	0.975555725097656	-0.0248653144836426	-0.199275680541992	0.264950007200241	0.527653336524963	0.0	-0.779293477535248	-0.486808270215988	0.630383968353271	0.991207092285156	0.083992317199707	-0.143063247680664	0.088488332927227	0.0	0.174153625965118	-0.893803596496582	-0.696035623550415	-0.41773384809494	-0.514576049804688	-0.147991973876953	0.850573791503906	0.0	-0.346930384635925	0.527197062969208	0.175783351063728	1.1384299993515	-0.874740362167358	0.992231079101562	-0.0697859344482422	-0.140651275634766	1.92560791969299	-0.0857293233275414	-0.611266732215881	-0.790539383888245	0.258781641721725	-0.58838015794754	0.970694091796875	-0.0078020687103271	-0.227548400878906	-0.960742712020874	0.877478897571564	-0.0889819636940956	-0.700451612472534	-0.841562151908875	0.430407792329788	-0.5189658203125	0.0219439697265625	0.863228942871094	0.0	-0.18032269179821	0.0852276980876923	-0.133052051067352	1.06152105331421	-1.10082161426544	0.973666625976563	0.114212036132812	-0.20215837097168	0.0	0.262196362018585	-0.78127384185791	-0.784193933010101	-0.434565454721451	1.04002594947815	0.991654846191406	-0.0258577766418457	-0.170884292602539	0.432283520698547	-0.701225280761719	0.0	-0.927242815494537	0.412097454071045	-0.898451209068298
0.897932922363281	0.076171875	-0.443363800048828	4.19627285003662	3.05973839759827	0.961604595184326	-0.783702075481415	0.414557695388794	0.526362478733063	0.94141845703125	0.187501525878906	0.299800018310547	2.62398624420166	-0.349804162979126	-0.0877305418252945	-0.704107522964478	-0.658688187599182	-0.342281579971313	0.997547424316406	0.0356431770324707	0.0219727306365967	3.40827512741089	-2.09847283363342	2.44833302497864	-0.912590444087982	-0.310058891773224	0.416021674871445	0.93698583984375	0.336434020996094	0.168462173461914	3.408203125	-2.53635168075562	2.27408337593079	-0.721688687801361	-0.782240033149719	0.210455447435379	1.00047106933594	-0.0488217582702637	-0.0043935923576355	1.39913129806519	-0.261427879333496	0.262295067310333	-0.813964664936066	-0.0429676175117493	-0.55468213558197	0.957521911621094	-0.271483306884766	0.166500244140625	1.04867339134216	-1.48654425144196	-1.05098402500153	-0.710922837257385	-0.17578150331974	-0.600583612918854	0.982439880371094	-0.0078026947975158	0.185045028686523	1.04729115962982	0.523787021636963	0.263279676437378	-0.849607348442078	0.595218241214752	-0.0629890114068985	0.9916875	-0.0131816120147705	-0.195799133300781	0.703487992286682	0.263826668262482	0.526239156723022	-0.779293477535248	-0.486808270215988	0.630383968353271	0.991207092285156	0.0810796356201172	-0.15089338684082	-0.347146540880203	0.0912980362772942	0.701321363449097	-0.892570316791534	-0.692395508289337	-0.423346608877182	-0.506362152099609	-0.141621444702148	0.849075622558594	0.349267840385437	-0.0867325961589813	0.0867539495229721	0.175783351063728	1.13719499111176	-0.885740041732788	0.997543701171875	-0.0707914962768555	-0.138679794311523	1.13829040527344	-0.0857293233275414	-0.438383221626282	-0.790539383888245	0.258781641721725	-0.58838015794754	0.978067932128906	0.0	-0.229506820678711	-0.178961873054504	0.522543609142303	0.0	-0.6992347240448	-0.840342819690704	0.415030211210251	-0.517018127441406	0.0214406681060791	0.847671081542969	-0.263573199510574	0.0	-0.0852276980876923	-0.129411056637764	1.0605320930481	-1.09813785552979	0.977010559082031	0.113742988586426	-0.204605209350586	0.177011355757713	0.262196362018585	-0.878933072090149	-0.784193933010101	-0.434565454721451	1.04002594947815	0.985386840820312	-0.0258577766418457	-0.176744338989258	0.176843255758286	0.0857053101062775	0.0	-0.931155562400818	0.414562493562698	-0.900869250297546
0.896478271484375	0.0732421875	-0.443363800048828	4.72080707550049	3.9343433380127	1.04937779903412	-0.780998110771179	0.414557695388794	0.522217929363251	0.935525024414062	0.177740478515625	0.303704406738281	2.79791021347046	-0.349804162979126	-0.349782824516296	-0.703870177268982	-0.659921169281006	-0.334962338209152	0.999012817382812	0.0385797500610352	0.0390677452087402	3.76021671295166	-2.62266278266907	1.48612809181213	-0.9113729596138	-0.306152731180191	0.424076616764069	0.931127746582031	0.3320341796875	0.158207473754883	2.70892286300659	-2.44908547401428	2.44506692886353	-0.71925014257431	-0.78099799156189	0.19970440864563	0.997061340332031	-0.0483340301513672	-0.00634978723526	1.22594881057739	0.349748104810715	-0.611442804336548	-0.813964664936066	-0.0402849242091179	-0.55468213558197	0.957987609863281	-0.268548431396484	0.164555465698242	1.74933564662933	-0.962103486061096	-0.0879893600940704	-0.712161839008331	-0.177243277430534	-0.620109796524048	0.983395935058594	-0.0034297559261322	0.189460845947266	0.700761020183563	0.699242770671844	0.522743701934814	-0.849607348442078	0.595218241214752	-0.0632355511188507	0.981916259765625	-0.0190234622955322	-0.195799133300781	1.05066382884979	0.0	-0.0877065286040306	-0.775635659694672	-0.484384566545486	0.62889838218689	0.98630517578125	0.0825062561035156	-0.148935852050781	-0.435634881258011	-0.171183824539185	0.0	-0.892570316791534	-0.692395508289337	-0.423346608877182	-0.507811676025391	-0.145051727294922	0.846215393066406	0.0873169600963593	0.0	-0.0867539495229721	0.170884415507317	1.13818299770355	-0.884047746658325	0.989268310546875	-0.0693837127685547	-0.133779251098633	0.616573989391327	0.17597071826458	-0.963208198547363	-0.787848711013794	0.257567673921585	-0.591312348842621	0.978540588378906	-0.0014538016319274	-0.221673110961914	-0.348504722118378	0.788745045661926	0.0	-0.700451612472534	-0.842781484127045	0.430407792329788	-0.518080505371094	0.0263730278015137	0.859840087890625	-0.263573199510574	0.0	0.0	-0.129133656620979	1.0605320930481	-1.09813785552979	0.972663452148438	0.112804901123047	-0.197754043579102	-0.261302471160889	0.52439272403717	-0.439466536045074	-0.781751871109009	-0.434565454721451	1.03712403774261	0.984825500488281	-0.0253735485076904	-0.170884292602539	0.265264868736267	-0.0857053101062775	0.354772508144379	-0.931155562400818	0.417000114917755	-0.902355015277863
0.895993408203125	0.0786155319213867	-0.441406066894531	3.4118344783783	3.49704074859619	1.22492432594299	-0.778323888778687	0.414557695388794	0.518073320388794	0.939439025878906	0.185542678833008	0.296380035400391	2.18539476394653	-0.437582731246948	-0.262052267789841	-0.703603148460388	-0.661133527755737	-0.327632158994675	1.00588171386719	0.0439421844482422	0.0244115886688232	3.23539161682129	-1.31218791007996	1.92440986633301	-0.910155415534973	-0.302246540784836	0.43213152885437	0.933586059570312	0.333984375	0.157713928222656	3.14991044998169	-2.62361788749695	2.71009182929993	-0.71681159734726	-0.779782891273499	0.188966229557991	0.999002990722656	-0.0405303535461426	0.0019509643316268	0.961617887020111	0.699496209621429	-0.611442804336548	-0.813964664936066	-0.0376022309064865	-0.55468213558197	0.944808959960938	-0.279791259765625	0.165527862548828	2.09734678268433	-1.66198658943176	-0.699026584625244	-0.713369131088257	-0.178705051541328	-0.639655828475952	0.979511840820313	-0.0136618604660034	0.184561553955078	0.962583839893341	-0.0877278745174408	0.0	-0.849607348442078	0.595218241214752	-0.0634820833802223	0.987262817382813	-0.0151288957595825	-0.196355377197266	1.13288974761963	-0.173371821641922	-0.175413057208061	-0.771977841854095	-0.481938391923904	0.627438902854919	0.990181091308594	0.0859539184570313	-0.142573852539062	-0.524123191833496	0.878743588924408	0.786044776439667	-0.892570316791534	-0.692395508289337	-0.423346608877182	-0.504429473876953	-0.147501922607422	0.854523620605469	-0.261950880289078	-0.520395576953888	-0.440443128347397	0.16601949930191	1.13917112350464	-0.882324159145355	0.987838012695312	-0.07571875	-0.140144332885742	0.436344653367996	0.17597071826458	-0.611266732215881	-0.785158038139343	0.256353706121445	-0.594244480133057	0.976082641601563	-0.0092558708190918	-0.221196731567383	0.612237989902496	0.788745045661926	0.0	-0.701668500900269	-0.84522020816803	0.445785373449326	-0.518080505371094	0.0210380268096924	0.857837585449219	-0.958447992801666	0.0	-0.265152812004089	-0.128890916705132	1.0605320930481	-1.09813785552979	0.974586181640625	0.113273948669434	-0.215811767578125	0.522604942321777	-0.0886297523975372	0.0	-0.779309809207916	-0.434565454721451	1.03418970108032	0.986322387695313	-0.0234366359710693	-0.174326553344727	-0.520705163478851	-0.261011630296707	0.0	-0.931155562400818	0.419437766075134	-0.903811633586884
0.894053955078125	0.0688544082641602	-0.437019775390625	4.5459623336792	3.67223763465881	0.786058068275452	-0.778323888778687	0.414792329072952	0.517828583717346	0.942363220214844	0.185061264038086	0.308107818603516	1.7468034029007	-0.873855292797089	-0.699565649032593	-0.703870177268982	-0.661133527755737	-0.320312917232513	1.00002020263672	0.0414950408935547	0.0229505748748779	3.32183337211609	-2.01110768318176	1.66244828701019	-0.912840247154236	-0.30761381983757	0.43213152885437	0.935521301269531	0.335458923339844	0.158687301635742	3.06171298027039	-3.05994939804077	2.27408337593079	-0.715561032295227	-0.778567850589752	0.188721895217896	1.00047106933594	-0.0454076499938965	-0.0102517156600952	1.5723135471344	-0.786050021648407	-0.611442804336548	-0.813964664936066	-0.0378471240401268	-0.55468213558197	0.94923291015625	-0.278812957763672	0.164063125610352	2.18550944328308	-1.31110179424286	-0.523047864437103	-0.713369131088257	-0.177243277430534	-0.617428183555603	0.982439880371094	-0.0082885770797729	0.185560745239258	0.523645579814911	-0.263183623552322	0.0	-0.852043867111206	0.594002246856689	-0.0510321967303753	0.987262817382813	-0.014230149269104	-0.195799133300781	0.877075910568237	0.263826668262482	0.0	-0.774406373500824	-0.484384566545486	0.626213908195496	0.983455261230469	0.0786424865722656	-0.149914611816406	0.088488332927227	-0.353779882192612	-0.0894302427768707	-0.892570316791534	-0.69360888004303	-0.421869575977325	-0.508294830322266	-0.140151336669922	0.852072021484375	0.523901760578156	-0.173465192317963	-0.0867539495229721	0.16601949930191	1.13917112350464	-0.882324159145355	0.994580932617187	-0.0722998428344727	-0.135750732421875	0.170743554830551	-0.261700034141541	-0.611266732215881	-0.785158038139343	0.257819920778275	-0.595454275608063	0.977028015136719	-0.0087712697982788	-0.217279876708984	-1.04551410675049	0.877478897571564	-0.0889819636940956	-0.701668500900269	-0.84522020816803	0.445785373449326	-0.520559387207031	0.0185215167999268	0.860302185058594	0.0	-0.432774484157562	-0.435608208179474	-0.134022980928421	1.05906689167023	-1.09545397758484	0.980939636230469	0.120075073242187	-0.208520156860352	0.261302471160889	0.173566594719887	-0.354014694690704	-0.780516505241394	-0.437022566795349	1.03833043575287	0.991187072753906	-0.0185943565368652	-0.17531005859375	-0.265264868736267	0.0	-0.171664118766785	-0.932364940643311	0.41431599855423	-0.903811633586884
0.900401306152344	0.0786155319213867	-0.428222381591797	4.63574743270874	3.84743475914001	1.48629343509674	-0.778323888778687	0.415041595697403	0.517583787441254	0.933095703125	0.176263046264648	0.298346893310547	1.57287931442261	0.0	0.0	-0.704107522964478	-0.661133527755737	-0.31299364566803	1.00588171386719	0.0414950408935547	0.0263672771453857	2.9698920249939	-2.09847283363342	1.22416651248932	-0.915525019168854	-0.31299102306366	0.43213152885437	0.93259228515625	0.336434020996094	0.164554962158203	2.62072539329529	-2.62361788749695	2.97511649131775	-0.714341759681702	-0.777352750301361	0.188477545976639	0.999997497558594	-0.0444321899414062	-0.008787184715271	1.5723135471344	-0.611176013946533	-0.786885261535645	-0.813964664936066	-0.0380808860063553	-0.55468213558197	0.95603173828125	-0.266606903076172	0.163570770263672	1.57300996780396	-0.873439073562622	0.0	-0.713369131088257	-0.17578150331974	-0.595220386981964	0.98435205078125	-0.0088030405044555	0.195810592651367	0.962583839893341	-0.523787021636963	0.263279676437378	-0.854480385780334	0.592767298221588	-0.0385669060051441	0.988737670898437	-0.0170761795043945	-0.19093196105957	1.22425174713135	0.263826668262482	0.0	-0.776864945888519	-0.486808270215988	0.624988973140717	0.992689025878906	0.0829817962646484	-0.145999542236328	0.176976665854454	0.171183824539185	0.348307251930237	-0.892570316791534	-0.694822251796722	-0.420417129993439	-0.507811676025391	-0.14701188659668	0.848122192382813	0.349267840385437	0.954058587551117	0.0	0.16601949930191	1.13917112350464	-0.882324159145355	0.989779113769531	-0.0737076263427734	-0.144030975341797	0.616573989391327	-0.613641500473022	-0.259325295686722	-0.785158038139343	0.259270399808884	-0.596684515476227	0.983361938476563	-0.0029076032638549	-0.228977523803711	-1.4882093667984	0.966212689876556	0.25953072309494	-0.701668500900269	-0.84522020816803	0.445785373449326	-0.516664001464844	0.020031421661377	0.861380493164063	-0.179709002375603	-0.0901613458991051	-0.170455396175385	-0.139155030250549	1.05760180950165	-1.09277009963989	0.975087829589844	0.110342422485352	-0.203137100219727	0.345593601465225	0.0	0.0	-0.781751871109009	-0.43945324420929	1.0424712896347	0.988754699707031	-0.0277946891784668	-0.162114685058594	-0.785970032215118	-0.350612640380859	0.171664118766785	-0.933609902858734	0.409166812896729	-0.903811633586884
0.898417785644531	0.0727561569213867	-0.433104309082031	3.58667922019958	3.58532905578613	1.13715100288391	-0.779779851436615	0.414792329072952	0.520504593849182	0.945782287597656	0.183102416992187	0.300299072265625	2.18539476394653	-0.349804162979126	-0.961617887020111	-0.705323934555054	-0.664791345596313	-0.318851232528687	1.00977404785156	0.0414950408935547	0.0288061351776123	2.7970085144043	-2.01110768318176	2.79845476150513	-0.915525019168854	-0.306639760732651	0.433593332767487	0.930656982421875	0.335934600830078	0.155767181396484	2.8853178024292	-2.62361788749695	2.79558372497559	-0.714341759681702	-0.777352750301361	0.188966229557991	0.997534912109375	-0.0532275848388672	-0.0058581233024597	2.36074924468994	0.436301946640015	-0.786885261535645	-0.812757968902588	-0.0366226583719254	-0.547120332717896	0.951188720703125	-0.274418182373047	0.164555465698242	1.3131617307663	-1.22432386875153	-0.435058534145355	-0.712161839008331	-0.17578150331974	-0.599371910095215	0.976583862304688	-0.01611985206604	0.183594589233398	1.04729115962982	-0.874698460102081	0.0	-0.855698704719543	0.594971239566803	-0.0383357815444469	0.986801879882813	-0.0175255527496338	-0.197746002197266	0.52076381444931	1.31159543991089	-0.263119578361511	-0.7780641913414	-0.484384566545486	0.627673447132111	0.989269104003906	0.083992317199707	-0.148935852050781	0.0	-0.0912980362772942	0.437737494707108	-0.892570316791534	-0.697278618812561	-0.419186264276505	-0.510227508544922	-0.147501922607422	0.854932250976562	-0.174633920192719	-0.173465192317963	0.787458896636963	0.164794757962227	1.1379359960556	-0.880851268768311	0.992639770507812	-0.0800426635742188	-0.142115814208984	0.521716415882111	-0.17597071826458	-0.611266732215881	-0.785158038139343	0.259270399808884	-0.595454275608063	0.975137268066406	-0.005379065990448	-0.230935958862305	-1.83671402931213	0.611277401447296	-0.25953072309494	-0.700451612472534	-0.842522084712982	0.455577075481415	-0.518080505371094	0.0146964206695557	0.860764343261719	0.263573199510574	-0.270484030246735	-0.170455396175385	-0.136727705597878	1.06126463413239	-1.09277009963989	0.977512145996094	0.109404342651367	-0.206073318481445	0.0	0.786589026451111	-0.78127384185791	-0.781751871109009	-0.43945324420929	1.0424712896347	0.988286987304687	-0.0298284454345703	-0.167482986450195	0.0884216278791428	-0.17530632019043	0.354772508144379	-0.933609902858734	0.409166812896729	-0.903811633586884
0.897932922363281	0.0751998138427734	-0.43456640625	3.84658360481262	3.32184386253357	0.873831331729889	-0.781235814094543	0.414557695388794	0.523441672325134	0.942363220214844	0.177740478515625	0.294427856445312	2.18539476394653	0.0	-0.349782824516296	-0.70654034614563	-0.668449103832245	-0.324708819389343	1.00487426757813	0.0361326065063477	0.0253894329071045	3.40827512741089	-3.05948758125305	2.01005125045776	-0.915525019168854	-0.300288498401642	0.435055166482925	0.928721740722656	0.337409118652344	0.169435546875	2.7971203327179	-2.71088433265686	1.83807492256165	-0.714341759681702	-0.777352750301361	0.189454913139343	0.996587768554687	-0.0522521286010742	-0.0068362207412719	2.71167135238647	0.174874052405357	-0.175442397594452	-0.811521887779236	-0.0351532995700836	-0.539558470249176	0.951188720703125	-0.271001678466797	0.167964996337891	1.66117286682129	-0.348998337984085	-0.0879893600940704	-0.710922837257385	-0.17578150331974	-0.60352349281311	0.978496032714844	-0.0146622066497803	0.185045028686523	1.13584887981415	-0.523787021636963	0.175519779324532	-0.856946647167206	0.597175180912018	-0.0380892492830753	0.989751708984375	-0.0112343282699585	-0.194269454956055	0.785713851451874	0.610570311546326	-0.263119578361511	-0.779293477535248	-0.481938391923904	0.630383968353271	0.991207092285156	0.0849433975219726	-0.14208447265625	0.0	-0.262481868267059	-0.522460877895355	-0.892570316791534	-0.699705362319946	-0.417980015277863	-0.508778015136719	-0.14701188659668	0.846215393066406	-0.523901760578156	0.0	0.0867539495229721	0.163570031523705	1.13673627376556	-0.879409730434418	0.987838012695312	-0.0781320953369141	-0.127921127319336	0.872689306735992	-0.0857293233275414	-0.351941466331482	-0.785158038139343	0.259270399808884	-0.594244480133057	0.980431274414063	0.0019384021759033	-0.229506820678711	-1.3092474937439	0.0887338221073151	1.04553806781769	-0.6992347240448	-0.839849889278412	0.46533590555191	-0.521975830078125	0.0180182132720947	0.858915893554687	-0.611010611057281	0.79341983795166	-0.700761020183563	-0.134265705943108	1.06492745876312	-1.09277009963989	0.980020080566406	0.11479833984375	-0.206073318481445	-0.0842911154031754	0.262196362018585	-0.0854518264532089	-0.781751871109009	-0.43945324420929	1.0424712896347	0.984357788085938	-0.0366076393127441	-0.173834808349609	0.0	-0.611624300479889	-0.789654910564423	-0.933609902858734	0.409166812896729	-0.903811633586884
0.889646057128906	0.0678688430786133	-0.43456640625	3.76152396202087	3.41013216972351	0.524688899517059	-0.783434689044952	0.413091391324997	0.520994126796722	0.937009643554688	0.178221893310547	0.306155639648438	1.31199312210083	-0.0877785682678223	-0.43751335144043	-0.70654034614563	-0.668449103832245	-0.324708819389343	0.998554870605469	0.0351537475585937	0.0293008098602295	2.35862517356873	-2.36056780815125	2.18637132644653	-0.915525019168854	-0.300049960613251	0.435308754444122	0.935521301269531	0.341309539794922	0.167475082397461	2.45063018798828	-2.44908547401428	2.00905847549438	-0.71681159734726	-0.777352750301361	0.201414808630943	0.999997497558594	-0.0424812698364258	-0.0131860084533691	2.27415800094604	0.0865538269281387	-0.700032591819763	-0.810315251350403	-0.0363777652382851	-0.547369420528412	0.939453735351563	-0.275878082275391	0.158204162597656	0.960510551929474	0.0	0.351957440376282	-0.709461390972137	-0.17822203040123	-0.627201199531555	0.975567993164063	-0.01660573387146	0.184561553955078	1.04729115962982	0.350911498069763	0.263279676437378	-0.854480385780334	0.598391175270081	-0.0532201714813709	0.981916259765625	-0.018574089050293	-0.205116271972656	1.05066382884979	0.263826668262482	-0.789358794689178	-0.779293477535248	-0.481938391923904	0.630383968353271	0.983911254882813	0.0829817962646484	-0.156276611328125	0.176976665854454	-0.171183824539185	-0.263583868741989	-0.89136791229248	-0.696035623550415	-0.42748236656189	-0.509744354248047	-0.145541763305664	0.853570251464844	0.0	0.260197788476944	0.0	0.168468967080116	1.13694798946381	-0.8837970495224	0.990187805175781	-0.0791376571655273	-0.140144332885742	0.265601098537445	-0.261700034141541	-0.172883525490761	-0.785158038139343	0.259270399808884	-0.594244480133057	0.973624694824219	-0.0029076032638549	-0.227548400878906	-0.527466595172882	0.345075964927673	0.25953072309494	-0.700451612472534	-0.841302692890167	0.452882707118988	-0.513653991699219	0.0263730278015137	0.852600341796875	0.347437381744385	0.18032269179821	0.0	-0.133052051067352	1.06763792037964	-1.09545397758484	0.978515319824219	0.112804901123047	-0.20069026184082	0.522604942321777	0.786589026451111	-0.354014694690704	-0.782958567142487	-0.437022566795349	1.0439385175705	0.990251586914062	-0.0234366359710693	-0.174818313598633	0.60912674665451	-0.701225280761719	-1.3962014913559	-0.931155562400818	0.411878347396851	-0.906724870204926
0.898946716308594	0.0737282180786133	-0.436524139404297	3.49689412117004	3.58532905578613	0.873831331729889	-0.785633504390717	0.411625057458878	0.518562853336334	0.939933898925781	0.178221893310547	0.298831268310547	1.6598414182663	-0.0877785682678223	-0.873887360095978	-0.70654034614563	-0.668449103832245	-0.324708819389343	1.00537799072266	0.0419844703674316	0.0268504467010498	2.01285815238953	-1.48691785335541	2.01005125045776	-0.915525019168854	-0.299801468849182	0.435547411441803	0.935521301269531	0.34618505859375	0.165034805297852	2.36243271827698	-3.05994939804077	2.97511649131775	-0.71925014257431	-0.777352750301361	0.213374689221382	0.997534912109375	-0.051276668548584	-0.0112298135757446	2.36074924468994	0.699496209621429	-0.962327659130096	-0.809079170227051	-0.0376022309064865	-0.555180311203003	0.9438310546875	-0.278812957763672	0.166020217895508	1.39668440818787	-0.437662780284882	-0.0879893600940704	-0.70799994468689	-0.180662557482719	-0.65087890625	0.982439880371094	-0.0112324504852295	0.18162841796875	1.39767169952393	-1.13788211345673	0.610503613948822	-0.852043867111206	0.599607110023499	-0.0683665052056313	0.985326965332031	-0.012133074760437	-0.193296020507812	1.05066382884979	1.13822364807129	-0.438532650470734	-0.779293477535248	-0.481938391923904	0.630383968353271	0.9882431640625	0.0888666076660156	-0.151382766723633	0.0	-0.0912980362772942	0.348307251930237	-0.890134632587433	-0.692395508289337	-0.437009304761887	-0.509261169433594	-0.142601531982422	0.850165222167969	0.0	0.260197788476944	0.613951027393341	0.173333883285522	1.13719499111176	-0.888184368610382	0.993661437988281	-0.0737076263427734	-0.13963737487793	0.350972861051559	0.0	-0.172883525490761	-0.785158038139343	0.259270399808884	-0.594244480133057	0.974097412109375	-0.0044098649024963	-0.233900054931641	-0.697009444236755	0.433809787034988	0.697025418281555	-0.701668500900269	-0.842781484127045	0.440429508686066	-0.520913452148438	0.0146964206695557	0.848595336914063	0.0838641971349716	-0.0901613458991051	-0.350380510091782	-0.131838381290436	1.07031178474426	-1.09813785552979	0.978013732910156	0.117729858398437	-0.203137100219727	0.345593601465225	0.435762941837311	0.0	-0.784193933010101	-0.434565454721451	1.04540574550629	0.993151672363281	-0.0214997234344482	-0.166499481201172	-0.962813258171082	0.0	-0.171664118766785	-0.928701221942902	0.414562493562698	-0.909667313098907
0.897447998046875	0.0751998138427734	-0.436028503417969	3.76152396202087	3.67223763465881	1.22492432594299	-0.784415245056152	0.414059162139893	0.520015060901642	0.937504516601563	0.17432080078125	0.302735656738281	2.18539476394653	-0.524051189422607	-0.174321725964546	-0.70167464017868	-0.669682085514069	-0.332028090953827	1.00194354248047	0.0400480346679688	0.0317396678924561	1.83380019664764	-0.786284923553467	2.18637132644653	-0.912840247154236	-0.304930180311203	0.431147038936615	0.926734130859375	0.341309539794922	0.168462173461914	1.48675763607025	-2.27455282211304	3.32563304901123	-0.720469415187836	-0.77489560842514	0.20727901160717	0.994125183105469	-0.0454076499938965	-0.008787184715271	2.27415800094604	0.0	0.962327659130096	-0.810315251350403	-0.0388155654072762	-0.558098316192627	0.952166625976563	-0.271001678466797	0.159176559448242	1.66117286682129	-0.611218690872192	0.0	-0.70799994468689	-0.180662557482719	-0.65087890625	0.982917907714844	-0.0117183322906494	0.193844421386719	0.785468399524689	-1.39848554134369	0.522743701934814	-0.852043867111206	0.599854111671448	-0.0683665052056313	0.978966491699219	-0.012133074760437	-0.210956878662109	1.39783978462219	0.437198489904404	-0.438532650470734	-0.7780641913414	-0.481938391923904	0.631843507289886	0.987331176757812	0.0854783782958984	-0.144531387329102	0.347146540880203	0.0912980362772942	0.786044776439667	-0.890134632587433	-0.692395508289337	-0.437009304761887	-0.507328491210937	-0.146521850585938	0.854932250976562	0.436584800481796	0.0867325961589813	0.0	0.172109141945839	1.13599526882172	-0.884047746658325	0.982934020996094	-0.0766237487792969	-0.133779251098633	0.958061099052429	-0.699370801448822	0.784150302410126	-0.783943951129913	0.259270399808884	-0.592768132686615	0.980431274414063	-0.0044098649024963	-0.233423690795898	-0.348504722118378	0.433809787034988	0.437494665384293	-0.6992347240448	-0.841562151908875	0.441645234823227	-0.515070495605469	0.0239571781158447	0.859377990722656	-0.263573199510574	0.703258514404297	0.435608208179474	-0.131838381290436	1.07031178474426	-1.09813785552979	0.97115869140625	0.110342422485352	-0.207541427612305	0.0	-0.173566594719887	0.170903652906418	-0.780516505241394	-0.434565454721451	1.04100406169891	0.988754699707031	-0.0200470409393311	-0.171867797851563	-0.962813258171082	0.350612640380859	-0.434882432222366	-0.929946184158325	0.418205261230469	-0.904044687747955
0.891585510253906	0.0664107513427734	-0.433104309082031	3.4118344783783	3.32184386253357	1.66183996200562	-0.783196926116943	0.4165078997612	0.521483600139618	0.939933898925781	0.180662155151367	0.304687835693359	1.6598414182663	-0.262025594711304	0.0	-0.696779251098633	-0.670894503593445	-0.339358240365982	1.00537799072266	0.0434527549743652	0.0336953544616699	2.7970085144043	-1.8363778591156	2.36017274856567	-0.910155415534973	-0.310058891773224	0.426761567592621	0.931127746582031	0.341785186767578	0.166995254516602	1.83324778079987	-3.1472156047821	1.92356669902802	-0.721688687801361	-0.772465407848358	0.201170459389687	0.994125183105469	-0.0458953819274902	-0.008787184715271	2.18756675720215	0.611176013946533	-0.262295067310333	-0.811521887779236	-0.0400400310754776	-0.561034083366394	0.951654418945313	-0.271001678466797	0.170894470214844	1.13683617115021	-1.04888141155243	-0.351957440376282	-0.70799994468689	-0.180662557482719	-0.65087890625	0.983395935058594	-0.0122042150497437	0.177244842529297	1.3129643201828	-0.962426364421844	0.351039558649063	-0.852043867111206	0.600101113319397	-0.0683665052056313	0.989290771484375	-0.0077891345024108	-0.200666290283203	1.39783978462219	0.527653336524963	-0.175413057208061	-0.776864945888519	-0.481938391923904	0.633303046226501	0.989269104003906	0.0873805465698242	-0.153829696655273	-0.524123191833496	0.696147501468658	0.701321363449097	-0.890134632587433	-0.692395508289337	-0.437009304761887	-0.510710693359375	-0.145051727294922	0.838315734863281	0.261950880289078	-0.173465192317963	-0.0867539495229721	0.170884415507317	1.13476014137268	-0.879879772663116	0.9873271484375	-0.07571875	-0.133328628540039	1.05291855335236	-0.523400068283081	0.0	-0.782729804515839	0.259270399808884	-0.591312348842621	0.978540588378906	-0.0073174681663513	-0.22850114440918	-0.178961873054504	0.433809787034988	0.437494665384293	-0.696768939495087	-0.840342819690704	0.442860990762711	-0.518611694335937	0.0180182132720947	0.861380493164063	-0.179709002375603	0.0901613458991051	-0.520835936069489	-0.131838381290436	1.07031178474426	-1.09813785552979	0.979518493652344	0.115736419677734	-0.204605209350586	0.345593601465225	0.0886297523975372	-0.354014694690704	-0.776867747306824	-0.434565454721451	1.03663504123688	0.980428588867188	-0.0224681797027588	-0.169941757202148	-0.785970032215118	0.261011630296707	-0.263218313455582	-0.931155562400818	0.421875387430191	-0.898451209068298
0.905294067382812	0.0791015625	-0.428222381591797	4.19627285003662	3.58532905578613	1.39852023124695	-0.783434689044952	0.416991800069809	0.520994126796722	0.942363220214844	0.181160171508789	0.296879089355469	1.6598414182663	-0.17424701154232	-0.0877305418252945	-0.70167464017868	-0.667236685752869	-0.32617050409317	0.997089477539063	0.0346643180847168	0.0332006797790527	2.01285815238953	-1.92374277114868	1.48612809181213	-0.911622703075409	-0.311281442642212	0.429446548223495	0.929663208007813	0.340334442138672	0.161621139526367	1.05207002162933	-2.09720540046692	2.00905847549438	-0.71925014257431	-0.772465407848358	0.200926125049591	0.997534912109375	-0.047358570098877	-0.0107433795928955	2.97144484519958	0.699496209621429	-0.175442397594452	-0.811521887779236	-0.0402849242091179	-0.561034083366394	0.947742736816406	-0.273439880371094	0.157711807250977	1.22499895095825	-0.348998337984085	-0.175978720188141	-0.710700452327728	-0.17578150331974	-0.625731229782104	0.986323974609375	-0.0107465686798096	0.196294067382812	0.785468399524689	-0.874698460102081	-0.0877598896622658	-0.854480385780334	0.60107010602951	-0.0532201714813709	0.978505554199219	-0.0166268062591553	-0.197746002197266	1.57142770290375	0.527653336524963	-0.526239156723022	-0.780522763729095	-0.481938391923904	0.629393577575684	0.984367248535156	0.0854783782958984	-0.155297836303711	0.176976665854454	-1.04992747306824	0.348307251930237	-0.89136791229248	-0.692395508289337	-0.428713232278824	-0.502013641357422	-0.143581604003906	0.853025451660156	-0.611218690872192	0.520395576953888	-0.440443128347397	0.170884415507317	1.13451313972473	-0.879879772663116	0.990698608398437	-0.07571875	-0.146960037231445	0.436344653367996	-0.785100162029266	0.172883525490761	-0.786634624004364	0.256590187549591	-0.592522084712982	0.98147119140625	-0.0078020687103271	-0.235329193115234	0.0	0.433809787034988	0.348512709140778	-0.696768939495087	-0.840083360671997	0.442860990762711	-0.521975830078125	0.0131865139007568	0.85737548828125	-0.431301593780518	-0.522935807704926	-0.871216416358948	-0.131838381290436	1.0663925409317	-1.09691786766052	0.972161865234375	0.111866813659668	-0.197754043579102	0.0	0.52439272403717	0.0854518264532089	-0.780516505241394	-0.432134747505188	1.03686320781708	0.992683898925781	-0.0214997234344482	-0.167974746704102	-0.176843255758286	-0.525918960571289	-0.698100745677948	-0.934819281101227	0.418205261230469	-0.900869250297546
0.899431579589844	0.0747137832641602	-0.434070770263672	3.58667922019958	3.58532905578613	0.524688899517059	-0.783702075481415	0.417475670576096	0.520504593849182	0.939439025878906	0.177740478515625	0.296879089355469	1.22503101825714	-0.524051189422607	-0.262052267789841	-0.70654034614563	-0.663578927516937	-0.31299364566803	1.00148559570313	0.0390691757202148	0.0229505748748779	1.30897521972656	-1.13745784759521	2.18637132644653	-0.913089990615845	-0.3125039935112	0.43213152885437	0.93698583984375	0.345709381103516	0.169915374755859	0.522885143756866	-2.88541674613953	1.83807492256165	-0.71681159734726	-0.772465407848358	0.200681775808334	0.988300231933594	-0.0483340301513672	-0.0029290616512298	2.79826259613037	0.0	-0.262295067310333	-0.811521887779236	-0.0405298173427582	-0.561034083366394	0.945786926269531	-0.273439880371094	0.161625991821289	1.39668440818787	0.175442397594452	0.0	-0.713369131088257	-0.170900449156761	-0.600583612918854	0.978496032714844	-0.0190351448059082	0.176761352539062	1.39767169952393	-0.523787021636963	-0.175519779324532	-0.856946647167206	0.602058053016663	-0.0380892492830753	0.982377197265625	-0.0146795225143433	-0.204560028076172	2.00996565818787	0.437198489904404	-0.263119578361511	-0.784180521965027	-0.481938391923904	0.62548416852951	0.986761169433594	0.0917792892456055	-0.153340301513672	1.1367347240448	0.0	0.174153625965118	-0.892570316791534	-0.692395508289337	-0.420417129993439	-0.512160217285156	-0.15426448059082	0.850165222167969	-0.785852611064911	-0.433663010597229	-0.347015798091888	0.170884415507317	1.13426613807678	-0.879879772663116	0.992639770507812	-0.0717970581054688	-0.147466979980469	0.265601098537445	-0.523400068283081	0.172883525490761	-0.790539383888245	0.253909975290298	-0.593752384185791	0.972206665039063	-0.0166217994689941	-0.224584289550781	0.0	0.17746764421463	1.13452005386353	-0.696768939495087	-0.839849889278412	0.442860990762711	-0.514185180664062	0.0239571781158447	0.855989135742187	0.0	0.0	-0.170455396175385	-0.131838381290436	1.06251001358032	-1.09569799900055	0.9731650390625	0.115267379760742	-0.208030792236328	-0.177011355757713	0.350826114416122	0.0	-0.784193933010101	-0.42967763543129	1.03712403774261	0.992216125488281	-0.0273104610443115	-0.173834808349609	-0.0884216278791428	0.0	-0.434882432222366	-0.938482999801636	0.414562493562698	-0.903316378593445
0.897932922363281	0.0693404388427734	-0.440910430908203	3.4118344783783	3.32184386253357	0.436915665864944	-0.779779851436615	0.417475670576096	0.519036054611206	0.93408544921875	0.175300231933594	0.291991271972656	1.6598414182663	0.262025594711304	-0.0877305418252945	-0.704107522964478	-0.664544761180878	-0.314695298671722	1.0087666015625	0.0463893280029297	0.0185560283660889	2.27218341827393	-1.92374277114868	1.66244828701019	-0.911622703075409	-0.310058891773224	0.429192960262299	0.93259228515625	0.337409118652344	0.161127593994141	0.96387255191803	-3.23448181152344	2.97511649131775	-0.71681159734726	-0.772222399711609	0.200926125049591	0.999997497558594	-0.0410180816650391	-0.0009780973792076	3.40895819664001	0.699496209621429	-0.611442804336548	-0.811521887779236	-0.0417431518435478	-0.553472220897675	0.950210815429688	-0.272461578369141	0.160161254882812	0.960510551929474	0.175442397594452	0.263968080282211	-0.713369131088257	-0.174561247229576	-0.599113702774048	0.987280090332031	-0.0126900968551636	0.188461639404297	1.39767169952393	-1.48621332645416	0.8737832903862	-0.855698704719543	0.599607110023499	-0.0380892492830753	0.982930236816406	-0.0190234622955322	-0.208036575317383	1.92773973941803	0.610570311546326	-0.789358794689178	-0.784180521965027	-0.481938391923904	0.62548416852951	0.981973266601562	0.0820307159423828	-0.160137298583984	0.701099872589111	0.0912980362772942	0.0894302427768707	-0.892570316791534	-0.69360888004303	-0.421869575977325	-0.502496795654297	-0.14701188659668	0.845670593261719	0.523901760578156	0.173465192317963	0.0	0.172109141945839	1.13694798946381	-0.87452095746994	0.987838012695312	-0.0791376571655273	-0.13963737487793	0.0853717774152756	0.523400068283081	-0.172883525490761	-0.790539383888245	0.255123972892761	-0.592276036739349	0.973624694824219	-0.0175909996032715	-0.234376434326172	-0.527466595172882	0.522543609142303	0.615458607673645	-0.700451612472534	-0.840083360671997	0.436026513576508	-0.520913452148438	0.0161056671142578	0.861842590332031	0.0	0.432774484157562	-0.435608208179474	-0.133052051067352	1.06251001358032	-1.09691786766052	0.974084594726563	0.111866813659668	-0.219237350463867	-0.0842911154031754	0.262196362018585	0.0854518264532089	-0.784193933010101	-0.42967763543129	1.03712403774261	0.989222473144531	-0.0253735485076904	-0.162114685058594	-0.353686511516571	-0.611624300479889	-0.354772508144379	-0.938482999801636	0.41431599855423	-0.903316378593445
0.901371032714844	0.0707985305786133	-0.427726745605469	3.93636870384216	3.23493528366089	1.13715100288391	-0.775887370109558	0.417475670576096	0.517583787441254	0.942363220214844	0.181160171508789	0.292475646972656	1.39895510673523	-0.961633861064911	-0.0877305418252945	-0.70167464017868	-0.665531098842621	-0.316407859325409	0.99461669921875	0.0297913112640381	0.0239284191131592	1.66091668605804	-1.8363778591156	1.83624970912933	-0.910155415534973	-0.30761381983757	0.426269322633743	0.934579833984375	0.343259735107422	0.168942001342773	0.0	-2.44908547401428	2.35957527160645	-0.71681159734726	-0.77197939157486	0.201170459389687	0.996587768554687	-0.0444321899414062	-0.0185524673461914	3.32236695289612	0.611176013946533	-0.437737494707108	-0.811521887779236	-0.0429676175117493	-0.545892596244812	0.949698547363281	-0.272461578369141	0.163090728759766	1.92566120624542	-0.262220352888107	-0.263968080282211	-0.713369131088257	-0.17822203040123	-0.597663640975952	0.990208068847656	-0.01611985206604	0.181144943237305	0.612203299999237	-0.874698460102081	0.610503613948822	-0.854480385780334	0.597175180912018	-0.0380892492830753	0.985880065917969	-0.0107849550247192	-0.193296020507812	1.39783978462219	-0.527653336524963	-0.263119578361511	-0.784180521965027	-0.481938391923904	0.62548416852951	0.992233032226562	0.0937408981323242	-0.145020782470703	0.435634881258011	0.0	-0.0894302427768707	-0.892570316791534	-0.694822251796722	-0.423346608877182	-0.508294830322266	-0.14701188659668	0.854523620605469	0.785852611064911	-0.260197788476944	0.347015798091888	0.173333883285522	1.13966512680054	-0.869130849838257	0.988757446289062	-0.0795398788452148	-0.136708312988281	0.701945722103119	0.0	-0.0864417627453804	-0.790539383888245	0.256353706121445	-0.59082019329071	0.972206665039063	-0.0122119340896606	-0.22850114440918	-0.178961873054504	0.788745045661926	0.786007344722748	-0.704102337360382	-0.840342819690704	0.429192036390305	-0.509758636474609	0.0287888774871826	0.851984191894531	0.179709002375603	0.0	-0.0852276980876923	-0.134265705943108	1.06251001358032	-1.09813785552979	0.976091003417969	0.115736419677734	-0.207052047729492	-0.783907413482666	0.52439272403717	-0.256355464458466	-0.784193933010101	-0.42967763543129	1.03712403774261	0.987351440429687	-0.0317653579711914	-0.167482986450195	0.520705163478851	-0.872635900974274	-0.354772508144379	-0.938482999801636	0.414069473743439	-0.903316378593445
0.897447998046875	0.0717840957641602	-0.439943969726563	3.32204937934875	3.75914645195007	0.524688899517059	-0.778323888778687	0.416009366512299	0.519280791282654	0.937999389648438	0.185061264038086	0.306155639648438	1.48591721057892	-0.0877785682678223	-0.174321725964546	-0.70167464017868	-0.665777683258057	-0.316156983375549	1.00633959960937	0.0419844703674316	0.0200170421600342	1.40159142017365	-2.71002769470215	1.31232666969299	-0.910155415534973	-0.307375282049179	0.426508009433746	0.936044372558594	0.343759185791016	0.16308805847168	0.787477612495422	-2.62361788749695	1.92356669902802	-0.718030869960785	-0.774652600288391	0.20727901160717	0.996114196777344	-0.0405303535461426	-0.0009780973792076	2.79826259613037	1.04924428462982	0.0	-0.811521887779236	-0.0415093898773193	-0.555180311203003	0.943365417480469	-0.277834655761719	0.161625991821289	1.74933564662933	0.524440705776215	0.523047864437103	-0.714608192443848	-0.177001774311066	-0.607416808605194	0.9882958984375	-0.0126900968551636	0.178211807250977	0.700761020183563	-0.611514866352081	0.0	-0.85326212644577	0.59375524520874	-0.0493218787014484	0.980441345214844	-0.0088376722335815	-0.199275680541992	1.13288974761963	0.346743643283844	-0.613945722579956	-0.780522763729095	-0.484384566545486	0.626474559307098	0.984367248535156	0.0829817962646484	-0.160626693725586	0.789588212966919	0.696147501468658	0.611891150474548	-0.892570316791534	-0.694822251796722	-0.423346608877182	-0.514576049804688	-0.146031814575195	0.843218994140625	0.349267840385437	0.433663010597229	0.700704991817474	0.175783351063728	1.13476014137268	-0.878657639026642	0.989779113769531	-0.0737076263427734	-0.139186752319336	0.958061099052429	-0.261700034141541	0.784150302410126	-0.790539383888245	0.256353706121445	-0.591066300868988	0.982416564941406	-0.0063482670783996	-0.226066345214844	-0.87597131729126	0.522543609142303	0.0	-0.706536114215851	-0.840342819690704	0.430670648813248	-0.520559387207031	0.0156023645401001	0.860302185058594	-0.263573199510574	0.18032269179821	0.520835936069489	-0.134265705943108	1.06126463413239	-1.10082161426544	0.976091003417969	0.110811470031738	-0.209939331054688	0.0	0.0886297523975372	-0.61037015914917	-0.782958567142487	-0.42967763543129	1.03833043575287	0.986790100097656	-0.0253735485076904	-0.171867797851563	0.0	-0.701225280761719	-0.789654910564423	-0.932364940643311	0.415521115064621	-0.902355015277863
0.894538818359375	0.0624954986572266	-0.424306915283203	3.76152396202087	3.49704074859619	0.700235366821289	-0.780760407447815	0.414557695388794	0.520994126796722	0.94141845703125	0.183102416992187	0.295411285400391	1.6598414182663	0.0	-0.174321725964546	-0.70167464017868	-0.666024267673492	-0.315916985273361	1.00588171386719	0.0400480346679688	0.0229505748748779	0.259325295686722	-1.31218791007996	1.31232666969299	-0.910155415534973	-0.30712679028511	0.426761567592621	0.929663208007813	0.336909698486328	0.162594512939453	0.522885143756866	-2.36181926727295	2.79558372497559	-0.71925014257431	-0.777352750301361	0.213374689221382	1.00487530517578	-0.0361407852172852	-0.0068362207412719	3.05803608894348	0.174874052405357	-0.262295067310333	-0.811521887779236	-0.0400400310754776	-0.564450204372406	0.94923291015625	-0.273439880371094	0.159176559448242	2.00918388366699	-0.699883162975311	0.0	-0.715815424919128	-0.17578150331974	-0.617189824581146	0.990208068847656	-0.0156339702606201	0.176277877807617	0.700761020183563	-0.263183623552322	-0.0877598896622658	-0.852043867111206	0.590335369110107	-0.0605545081198215	0.978966491699219	-0.0151288957595825	-0.200249114990234	1.66278970241547	0.346743643283844	-0.263119578361511	-0.776864945888519	-0.486808270215988	0.627438902854919	0.9848232421875	0.0913037490844727	-0.156711624145508	0.0	-0.353779882192612	-0.263583868741989	-0.892570316791534	-0.694822251796722	-0.423346608877182	-0.516669799804688	-0.148482009887695	0.853570251464844	-0.0873169600963593	-0.0867325961589813	0.0	0.178232818841934	1.12989056110382	-0.888184368610382	0.993150573730469	-0.0742104034423828	-0.142115814208984	1.3944057226181	0.437670767307281	0.259325295686722	-0.790539383888245	0.256353706121445	-0.591312348842621	0.968708862304687	-0.0151195373535156	-0.239722427368164	-1.13970458507538	0.611277401447296	0.348512709140778	-0.70896989107132	-0.840342819690704	0.43211641907692	-0.517018127441406	0.020031421661377	0.858915893554687	-0.179709002375603	0.270484030246735	-0.265152812004089	-0.134265705943108	1.06005585193634	-1.10350549221039	0.972663452148438	0.102016906738281	-0.204605209350586	0.345593601465225	0.0886297523975372	0.0	-0.781751871109009	-0.42967763543129	1.03953683376312	0.986322387695313	-0.0282789173126221	-0.171867797851563	-0.0884216278791428	-0.17530632019043	-1.31609153747559	-0.926282405853271	0.417000114917755	-0.901364505290985
0.90282568359375	0.0688544082641602	-0.435557678222656	3.32204937934875	3.58532905578613	0.524688899517059	-0.780998110771179	0.414792329072952	0.520504593849182	0.94141845703125	0.178221893310547	0.302735656738281	1.39895510673523	0.0	-0.0877305418252945	-0.697995662689209	-0.664791345596313	-0.329344719648361	1.00537799072266	0.0444316139221191	0.0293008098602295	1.40159142017365	-0.786284923553467	2.01005125045776	-0.911622703075409	-0.306152731180191	0.42822340130806	0.929663208007813	0.336434020996094	0.177729782104492	0.43468764424324	-2.53635168075562	1.92356669902802	-0.718030869960785	-0.776110649108887	0.2041025608778	0.994125183105469	-0.0488217582702637	-0.0078143181800842	2.97144484519958	-0.0865538269281387	0.0	-0.810315251350403	-0.0400400310754776	-0.565909206867218	0.9438310546875	-0.279791259765625	0.153809951782227	2.09734678268433	-0.348998337984085	0.523047864437103	-0.715815424919128	-0.17578150331974	-0.617189824581146	0.994630004882813	-0.0112324504852295	0.182627624511719	0.785468399524689	0.0877278745174408	0.8737832903862	-0.852043867111206	0.590335369110107	-0.0605545081198215	0.98385205078125	-0.0112343282699585	-0.19232258605957	0.877075910568237	0.527653336524963	0.0	-0.776864945888519	-0.485596418380737	0.627438902854919	0.9814033203125	0.0888666076660156	-0.151872146606445	0.524123191833496	0.524963736534119	0.263583868741989	-0.890134632587433	-0.694822251796722	-0.424799054861069	-0.508294830322266	-0.138191177368164	0.845261962890625	0.174633920192719	-0.173465192317963	-0.260261833667755	0.172109141945839	1.13574826717377	-0.887933671474457	0.982423217773438	-0.0752159652709961	-0.137722213745117	0.872689306735992	0.0	-0.697708487510681	-0.785387694835663	0.256590187549591	-0.594244480133057	0.974570068359375	-0.011242733001709	-0.239722427368164	-1.13970458507538	0.877478897571564	0.615458607673645	-0.705319225788116	-0.840342819690704	0.440429508686066	-0.515601623535156	0.0214406681060791	0.854448791503906	-0.0838641971349716	0.865548968315125	-0.0852276980876923	-0.134265705943108	1.06005585193634	-1.10350549221039	0.973666625976563	0.106941864013672	-0.201668991088867	0.438313812017441	0.52439272403717	-0.170903652906418	-0.779309809207916	-0.432134747505188	1.03953683376312	0.994180725097656	-0.0219839515686035	-0.171867797851563	0.0	-0.436317950487137	-0.171664118766785	-0.929946184158325	0.417000114917755	-0.899645686149597
0.90282568359375	0.0668967819213867	-0.425298156738281	3.0621452331543	3.75914645195007	0.700235366821289	-0.781235814094543	0.415041595697403	0.520015060901642	0.938944152832031	0.17676106262207	0.308592193603516	1.83754646778107	-0.437582731246948	0.0	-0.694346368312836	-0.663578927516937	-0.342772454023361	1.00047814941406	0.0346643180847168	0.0209948863983154	1.13609170913696	-2.71002769470215	1.92440986633301	-0.913089990615845	-0.305178672075272	0.429685205221176	0.942373229980469	0.344734283447266	0.167475082397461	0.0881974920630455	-2.62361788749695	1.65854203701019	-0.71681159734726	-0.77489560842514	0.194830432534218	0.99559326171875	-0.0400426216125488	-0.0117162466049194	2.00982689857483	0.699496209621429	0.349147766828537	-0.809079170227051	-0.0400400310754776	-0.567385971546173	0.958965515136719	-0.267088500976563	0.152345199584961	1.48484718799591	-0.175442397594452	0.263968080282211	-0.715815424919128	-0.17578150331974	-0.617189824581146	0.990745910644531	-0.0126900968551636	0.18066145324707	1.83660995960236	-0.350911498069763	0.351039558649063	-0.852043867111206	0.590335369110107	-0.0605545081198215	0.973159057617187	-0.0194728355407715	-0.191905395507812	0.877075910568237	0.263826668262482	-0.350826114416122	-0.776864945888519	-0.484384566545486	0.627438902854919	0.982429260253906	0.0883910675048828	-0.141595092773437	0.612611532211304	0.0912980362772942	1.2237823009491	-0.887698948383331	-0.694822251796722	-0.426276087760925	-0.510710693359375	-0.144071655273437	0.853025451660156	0.0	-0.173465192317963	-0.347015798091888	0.16601949930191	1.14160585403442	-0.887682974338531	0.991720275878906	-0.0659648056030273	-0.137722213745117	1.3944057226181	-0.0857293233275414	-0.259325295686722	-0.780268847942352	0.256842434406281	-0.597176671028137	0.973624694824219	-0.0161371974945068	-0.239246047973633	-0.527466595172882	0.266201466321945	0.0	-0.701668500900269	-0.840342819690704	0.448742598295212	-0.531714172363281	0.0141931180953979	0.860764343261719	-0.874583780765533	0.522935807704926	0.700761020183563	-0.134265705943108	1.06005585193634	-1.10350549221039	0.97115869140625	0.108348991394043	-0.206073318481445	0.783907413482666	-0.0886297523975372	0.256355464458466	-0.776867747306824	-0.434565454721451	1.03953683376312	0.988754699707031	-0.0248893203735352	-0.17235954284668	0.353686511516571	-0.611624300479889	-0.961319029331207	-0.933609902858734	0.417000114917755	-0.89795595407486
0.901855895996094	0.0595658111572266	-0.430675720214844	3.4118344783783	3.41013216972351	0.786058068275452	-0.786138594150543	0.416009366512299	0.516359984874725	0.947266906738281	0.183102416992187	0.291991271972656	1.48591721057892	-0.437582731246948	-0.262052267789841	-0.70167464017868	-0.664791345596313	-0.32642138004303	1.00830871582031	0.0405374641418457	0.0253894329071045	0.611266732215881	-1.8363778591156	1.31232666969299	-0.911622703075409	-0.305178672075272	0.429446548223495	0.939444152832031	0.3452099609375	0.160647766113281	0.522885143756866	-1.83540654182434	1.75258302688599	-0.71681159734726	-0.77489560842514	0.194830432534218	1.00146557617187	-0.0371162414550781	-0.0029290616512298	3.2357759475708	0.0	0.0868526771664619	-0.808843731880188	-0.0400400310754776	-0.567385971546173	0.946764831542969	-0.273921508789063	0.161625991821289	1.66117286682129	0.175442397594452	0.351957440376282	-0.715815424919128	-0.177001774311066	-0.613038241863251	0.98435205078125	-0.0190351448059082	0.181144943237305	1.6594945192337	-0.611514866352081	0.0	-0.85326212644577	0.591551303863525	-0.0522494502365589	0.986341003417969	-0.0107849550247192	-0.200249114990234	0.0	0.874396979808807	0.0	-0.775635659694672	-0.484384566545486	0.625979363918304	0.984367248535156	0.083992317199707	-0.16796745300293	1.31371140480042	-0.0912980362772942	0.0	-0.88890141248703	-0.696035623550415	-0.423346608877182	-0.510710693359375	-0.146031814575195	0.851118591308594	-0.349267840385437	-0.346930384635925	0.0	0.16601949930191	1.14160585403442	-0.887682974338531	0.983853515625	-0.0742104034423828	-0.135243789672852	1.48926329612732	-0.613641500473022	-0.172883525490761	-0.784173607826233	0.256590187549591	-0.594244480133057	0.977028015136719	-0.0151195373535156	-0.243162902832031	-0.263733297586441	0.700011253356934	-0.0889819636940956	-0.701892673969269	-0.840342819690704	0.448742598295212	-0.519497009277344	0.0166089687347412	0.853524536132813	0.0	0.270484030246735	0.0852276980876923	-0.133052051067352	1.06251001358032	-1.10082161426544	0.972161865234375	0.106941864013672	-0.20362646484375	0.615325152873993	0.0886297523975372	-0.69582200050354	-0.781751871109009	-0.437022566795349	1.03833043575287	0.990719299316406	-0.0170448265075684	-0.169941757202148	0.874391615390778	0.0	-1.05287325382233	-0.934819281101227	0.418205261230469	-0.900636196136475
0.911641479492188	0.0717840957641602	-0.427255889892578	3.0621452331543	2.71072387695312	1.04937779903412	-0.791011691093445	0.416991800069809	0.512688636779785	0.943352966308594	0.178703308105469	0.296380035400391	1.13806891441345	-0.262025594711304	0.174321725964546	-0.708973228931427	-0.666024267673492	-0.310059398412704	1.01169732666016	0.0429633255004883	0.0253894329071045	0.438383221626282	-2.01110768318176	0.261961549520493	-0.910155415534973	-0.305178672075272	0.429192960262299	0.934579833984375	0.341785186767578	0.181636993408203	0.0881974920630455	-2.09720540046692	2.27408337593079	-0.71681159734726	-0.77489560842514	0.194830432534218	1.00293365478516	-0.0400426216125488	-0.0112298135757446	2.62508010864258	-0.0865538269281387	0.437737494707108	-0.80860823392868	-0.0400400310754776	-0.567385971546173	0.94923291015625	-0.278316284179688	0.161625991821289	1.83749842643738	-0.175442397594452	0.523047864437103	-0.715815424919128	-0.17822203040123	-0.60888671875	0.984889831542969	-0.0131759786605835	0.174311706542969	2.00987505912781	-0.4360591173172	0.698263466358185	-0.854480385780334	0.592767298221588	-0.0439443923532963	0.984866088867188	-0.0136309852600098	-0.201639724731445	0.0	0.173371821641922	0.263119578361511	-0.774406373500824	-0.484384566545486	0.624519824981689	0.97946533203125	0.0854783782958984	-0.15720100402832	0.524123191833496	-0.262481868267059	0.0	-0.890134632587433	-0.697278618812561	-0.420417129993439	-0.513126525878906	-0.146031814575195	0.847713623046875	0.611218690872192	-0.607128202915192	-0.613951027393341	0.16601949930191	1.14160585403442	-0.887682974338531	0.982934020996094	-0.0747131881713867	-0.142566436767578	1.57463502883911	-0.437670767307281	0.0	-0.788078427314758	0.256353706121445	-0.591312348842621	0.966345458984375	-0.0229700660705566	-0.236334869384766	-0.178961873054504	0.966212689876556	0.177963927388191	-0.702148854732513	-0.840342819690704	0.448742598295212	-0.520028198242187	0.0180182132720947	0.854448791503906	-0.179709002375603	0.0	-0.265152812004089	-0.131838381290436	1.06492745876312	-1.09813785552979	0.973666625976563	0.109873382568359	-0.212875549316406	0.261302471160889	0.87521880865097	0.170903652906418	-0.786607325077057	-0.43945324420929	1.03712403774261	0.985386840820312	-0.0170448265075684	-0.173343048095703	0.697548389434814	-0.261011630296707	-1.05287325382233	-0.936028659343719	0.419437766075134	-0.903316378593445
0.905294067382812	0.0673828125	-0.432608673095703	3.14720463752747	4.28473711013794	1.57406675815582	-0.787119150161743	0.418208837509155	0.512688636779785	0.9496962890625	0.186040679931641	0.295895660400391	0.699477553367615	0.262025594711304	-0.174321725964546	-0.707756817340851	-0.664791345596313	-0.31299364566803	1.00340887451172	0.0278335971832275	0.0200170421600342	0.524824976921082	-1.13745784759521	1.92440986633301	-0.910155415534973	-0.305178672075272	0.430669695138931	0.93651513671875	0.335458923339844	0.157220397949219	0.522885143756866	-1.83540654182434	1.13704168796539	-0.71681159734726	-0.77489560842514	0.195074781775475	1.00099200439453	-0.0463831100463867	-0.00634978723526	3.1491847038269	0.0	-0.175442397594452	-0.810050368309021	-0.0415093898773193	-0.554931223392487	0.953610229492188	-0.274418182373047	0.15673942565918	2.27367234230042	-0.611218690872192	0.787015974521637	-0.713369131088257	-0.176760256290436	-0.60352349281311	0.990745910644531	-0.0112324504852295	0.176277877807617	1.3129643201828	-0.611514866352081	0.698263466358185	-0.85326212644577	0.596434235572815	-0.0412633530795574	0.981916259765625	-0.0214201202392578	-0.202613159179688	0.173587948083878	-0.0904548615217209	-0.350826114416122	-0.774406373500824	-0.484384566545486	0.624519824981689	0.989269104003906	0.0854783782958984	-0.151872146606445	0.2654649913311	0.353779882192612	0.0	-0.892570316791534	-0.69360888004303	-0.421623408794403	-0.509261169433594	-0.147501922607422	0.853570251464844	0.0873169600963593	0.520395576953888	0.440443128347397	0.167244225740433	1.1379359960556	-0.885019242763519	0.9956025390625	-0.0649592437744141	-0.137722213745117	2.09635138511658	0.0	-0.351941466331482	-0.790539383888245	0.253657728433609	-0.592522084712982	0.972206665039063	-0.0185602016448975	-0.232894378662109	-0.263733297586441	0.345075964927673	0.0889819636940956	-0.700675785541534	-0.84400087594986	0.437505125999451	-0.513122802734375	0.020031421661377	0.858915893554687	-0.0838641971349716	0.342613130807877	0.0	-0.13062472641468	1.0639750957489	-1.09691786766052	0.98194287109375	0.11479833984375	-0.208960586547852	1.04520988464355	1.57317805290222	-0.439466536045074	-0.786607325077057	-0.439215451478958	1.03712403774261	0.990251586914062	-0.0170448265075684	-0.168466491699219	0.60912674665451	-0.701225280761719	-1.05287325382233	-0.936028659343719	0.419437766075134	-0.903316378593445
0.906263793945313	0.0649391555786133	-0.433599945068359	3.0621452331543	3.9343433380127	0.873831331729889	-0.783196926116943	0.419440537691116	0.512688636779785	0.947266906738281	0.178703308105469	0.297363464355469	1.48591721057892	0.17424701154232	-0.787296175956726	-0.70654034614563	-0.663578927516937	-0.315916985273361	1.01270477294922	0.0346643180847168	0.0322228355407715	0.0864417627453804	-0.61155492067337	1.57428812980652	-0.910155415534973	-0.305178672075272	0.43213152885437	0.937979675292969	0.339834991455078	0.171382293701172	0.176394984126091	-1.13727641105652	2.00905847549438	-0.71681159734726	-0.77489560842514	0.19530625641346	1.00293365478516	-0.0371162414550781	-0.0151369724273682	2.79826259613037	-0.261427879333496	0.524590134620667	-0.811521887779236	-0.0429676175117493	-0.5424764752388	0.957009704589844	-0.273921508789063	0.155767028808594	2.00918388366699	0.0	0.523047864437103	-0.710922837257385	-0.175298482179642	-0.598140358924866	0.990745910644531	-0.0141477432250977	0.183111099243164	2.18699049949646	-0.175455749034882	0.522743701934814	-0.852043867111206	0.600101113319397	-0.0385669060051441	0.983391174316406	-0.0146795225143433	-0.196772567749023	0.612125873565674	0.527653336524963	-0.175413057208061	-0.774406373500824	-0.484384566545486	0.624519824981689	0.98630517578125	0.0844678573608398	-0.158669158935547	1.1367347240448	0.171183824539185	0.0894302427768707	-0.895006000995636	-0.689939141273499	-0.422854274511337	-0.516186645507812	-0.151814270019531	0.848122192382813	0.0	0.260197788476944	0.347015798091888	0.168468967080116	1.13426613807678	-0.882324159145355	0.9873271484375	-0.0697859344482422	-0.139186752319336	1.92560791969299	-0.613641500473022	-0.876766443252563	-0.792967617511749	0.250977516174316	-0.593752384185791	0.966818115234375	-0.0171063995361328	-0.238293304443359	0.348504722118378	0.700011253356934	0.25953072309494	-0.6992347240448	-0.847658932209015	0.426267683506012	-0.526933532714844	0.0166089687347412	0.85737548828125	-0.790719568729401	0.0	0.170455396175385	-0.129411056637764	1.06298613548279	-1.09569799900055	0.968734375	0.103072257995605	-0.208960586547852	0.261302471160889	1.04878544807434	0.0854518264532089	-0.786607325077057	-0.438977688550949	1.03712403774261	0.991654846191406	-0.0176259002685547	-0.169941757202148	0.60912674665451	-0.611624300479889	-0.789654910564423	-0.936028659343719	0.419437766075134	-0.903316378593445
0.911641479492188	0.0722701263427734	-0.425769012451172	3.76152396202087	3.9343433380127	0.786058068275452	-0.788337469100952	0.419191271066666	0.51587051153183	0.936514770507813	0.177242477416992	0.306640014648437	0.173924148082733	1.22365951538086	-0.174321725964546	-0.705323934555054	-0.663578927516937	-0.324708819389343	1.00295092773438	0.0283230247497559	0.0170950145721436	0.876766443252563	-1.66164779663086	1.48612809181213	-0.910155415534973	-0.305178672075272	0.43213152885437	0.94436083984375	0.340334442138672	0.165528335571289	0.43468764424324	-1.66087400913239	1.57305014133453	-0.71925014257431	-0.77489560842514	0.202880859375	0.999997497558594	-0.0376039733886719	-0.0068362207412719	2.36074924468994	1.13579821586609	0.962327659130096	-0.808843731880188	-0.042722724378109	-0.556639313697815	0.95263232421875	-0.269526702880859	0.164063125610352	1.92566120624542	0.611218690872192	0.263968080282211	-0.712161839008331	-0.177980527281761	-0.609125077724457	0.986802001953125	-0.0146622066497803	0.179694488525391	1.04729115962982	-0.699242770671844	0.263279676437378	-0.852043867111206	0.595218241214752	-0.0397995673120022	0.98385205078125	-0.0205213737487793	-0.196772567749023	0.959301769733429	0.437198489904404	0.0	-0.775635659694672	-0.483150243759155	0.627438902854919	0.980491333007813	0.0825062561035156	-0.151872146606445	1.04824638366699	-0.171183824539185	0.174153625965118	-0.895006000995636	-0.689939141273499	-0.422854274511337	-0.506362152099609	-0.137211090087891	0.854932250976562	-0.0873169600963593	0.0	-0.347015798091888	0.170884415507317	1.13818299770355	-0.881101965904236	0.994172241210938	-0.0629481201171875	-0.135243789672852	2.09635138511658	-0.261700034141541	-0.351941466331482	-0.792967617511749	0.250977516174316	-0.593752384185791	0.969276062011719	-0.0175909996032715	-0.247556137084961	0.084771417081356	0.266201466321945	0.697025418281555	-0.700451612472534	-0.848878264427185	0.427746295928955	-0.521975830078125	0.0190248184204102	0.853062438964844	0.0838641971349716	0.703258514404297	0.265152812004089	-0.13062472641468	1.06272971630096	-1.09569799900055	0.972161865234375	0.109873382568359	-0.20362646484375	0.960918784141541	1.04878544807434	-0.524918377399445	-0.786607325077057	-0.439215451478958	1.03712403774261	0.988286987304687	-0.01811012840271	-0.167482986450195	0.962813258171082	-0.701225280761719	-1.83108389377594	-0.936028659343719	0.418205261230469	-0.900636196136475
0.900886169433594	0.0620094680786133	-0.426760284423828	3.14720463752747	3.41013216972351	0.961604595184326	-0.793448209762573	0.418942004442215	0.519036054611206	0.946277160644531	0.182122985839844	0.300299072265625	0.960363805294037	0.524051189422607	-0.0877305418252945	-0.704107522964478	-0.663578927516937	-0.333500653505325	1.01123944091797	0.0366220321655273	0.0307618236541748	-0.172883525490761	-0.174729973077774	1.22416651248932	-0.910155415534973	-0.305178672075272	0.43213152885437	0.938973449707031	0.342784088134766	0.171382293701172	0.0	-1.83540654182434	1.92356669902802	-0.721688687801361	-0.77489560842514	0.210455447435379	1.00246008300781	-0.0361407852172852	-0.0053716897964477	2.88485360145569	0.960924088954926	0.786885261535645	-0.806165516376495	-0.0424778312444687	-0.57080215215683	0.953610229492188	-0.270505004882812	0.155767028808594	1.66117286682129	0.699883162975311	0.523047864437103	-0.713369131088257	-0.180662557482719	-0.620109796524048	0.98435205078125	-0.0170916175842285	0.176277877807617	1.83660995960236	0.175455749034882	0.438799470663071	-0.852043867111206	0.590335369110107	-0.0410168208181858	0.987815856933594	-0.018574089050293	-0.198719436645508	0.52076381444931	-0.263826668262482	0.0877065286040306	-0.776864945888519	-0.481938391923904	0.630383968353271	0.980947326660156	0.0869049987792969	-0.155297836303711	1.1367347240448	-0.696147501468658	0.0	-0.895006000995636	-0.689939141273499	-0.422854274511337	-0.508294830322266	-0.145051727294922	0.844717163085937	-0.436584800481796	-0.0867325961589813	-0.0867539495229721	0.173333883285522	1.14209985733032	-0.879879772663116	0.984875183105469	-0.0752159652709961	-0.144030975341797	2.09635138511658	-0.35194143652916	-0.524824976921082	-0.792967617511749	0.250977516174316	-0.593752384185791	0.974097412109375	-0.0166217994689941	-0.240728103637695	0.433276116847992	-0.0887338221073151	-0.0889819636940956	-0.701668500900269	-0.85009765625	0.429192036390305	-0.5189658203125	0.0195281200408936	0.852600341796875	-0.347437381744385	0.432774484157562	0.0852276980876923	-0.131838381290436	1.06251001358032	-1.09569799900055	0.976592590332031	0.11479833984375	-0.204605209350586	0.438313812017441	0.87521880865097	0.524918377399445	-0.786607325077057	-0.43945324420929	1.03712403774261	0.990251586914062	-0.0176259002685547	-0.174326553344727	0.874391615390778	-0.872635900974274	-1.22453737258911	-0.936028659343719	0.417000114917755	-0.89795595407486
0.90476513671875	0.0712845611572266	-0.419424987792969	4.02142810821533	3.67223763465881	1.48629343509674	-0.793448209762573	0.419191271066666	0.518562853336334	0.944837585449219	0.180180740356445	0.302735656738281	1.13806891441345	-0.17424701154232	0.0	-0.704107522964478	-0.663578927516937	-0.333500653505325	1.00780499267578	0.0322171745300293	0.0249062633514404	0.611266732215881	-0.786284923553467	1.05036509037018	-0.910155415534973	-0.308836370706558	0.434816509485245	0.93651513671875	0.342284637451172	0.171875839233398	-0.176394984126091	-1.66087400913239	2.09455037117004	-0.721688687801361	-0.772465407848358	0.205812960863113	0.996114196777344	-0.0385794334411621	-0.0092788486480712	2.36074924468994	0.261427879333496	1.48691785335541	-0.811286449432373	-0.0439471900463104	-0.565909206867218	0.946299133300781	-0.274899780273437	0.150880462646484	1.83749842643738	0.086777962744236	0.962994694709778	-0.713369131088257	-0.180662557482719	-0.620109796524048	0.983395935058594	-0.0185492630004883	0.181144943237305	1.83660995960236	-0.0877278745174408	0.610503613948822	-0.852043867111206	0.590335369110107	-0.0412633530795574	0.982930236816406	-0.0166268062591553	-0.201639724731445	1.13288974761963	0.610570311546326	0.701652228832245	-0.775635659694672	-0.483150243759155	0.627438902854919	0.9916630859375	0.0893421478271484	-0.15089338684082	1.1367347240448	-0.0912980362772942	0.0	-0.893803596496582	-0.692395508289337	-0.42310044169426	-0.508294830322266	-0.149854110717773	0.850165222167969	0.0	0.693860769271851	-0.0867539495229721	0.172109141945839	1.13574826717377	-0.881101965904236	0.982934020996094	-0.067875373840332	-0.135243789672852	1.74537861347198	0.35194143652916	0.0	-0.789062798023224	0.253657728433609	-0.591066300868988	0.970694091796875	-0.0131811351776123	-0.241680847167969	0.527466595172882	0.433809787034988	0.963971316814423	-0.706536114215851	-0.846439599990845	0.439213752746582	-0.520913452148438	0.020031421661377	0.862766845703125	-0.263573199510574	0.270484030246735	0.350380510091782	-0.131838381290436	1.06251001358032	-1.09569799900055	0.971660278320313	0.116205467224121	-0.193349716186523	0.438313812017441	0.435762941837311	0.170903652906418	-0.786607325077057	-0.435780793428421	1.03855872154236	0.988754699707031	-0.0155921421051025	-0.178711364746094	1.05123484134674	-0.350612640380859	-0.263218313455582	-0.932364940643311	0.41576761007309	-0.900869250297546
0.901855895996094	0.0659247207641602	-0.427726745605469	3.84658360481262	4.89585733413696	1.57406675815582	-0.793448209762573	0.419440537691116	0.518073320388794	0.938494262695313	0.176263046264648	0.298346893310547	1.39895510673523	-0.17424701154232	-0.174321725964546	-0.704107522964478	-0.663578927516937	-0.333500653505325	1.00927032470703	0.0307701683044434	0.0214895610809326	0.259325295686722	-0.961014866828918	0.7858846783638	-0.910155415534973	-0.3125039935112	0.437501460313797	0.939967224121094	0.339834991455078	0.172369369506836	-0.61108261346817	-1.74814033508301	1.48755824565887	-0.721688687801361	-0.770008265972137	0.201170459389687	1.00099200439453	-0.0327104148864746	0.0009780973792076	1.75005340576172	1.13579821586609	1.31147539615631	-0.816407382488251	-0.0454054176807404	-0.561034083366394	0.953144592285156	-0.271001678466797	0.161625991821289	2.36183500289917	0.0	0.611037254333496	-0.713369131088257	-0.180662557482719	-0.620109796524048	0.979511840820313	-0.0175774993896484	0.183594589233398	2.09843277931213	1.13788211345673	0.0877598896622658	-0.852043867111206	0.590335369110107	-0.041509885340929	0.981916259765625	-0.0190234622955322	-0.202613159179688	1.13288974761963	0.173371821641922	0.526239156723022	-0.774406373500824	-0.484384566545486	0.624519824981689	0.983455261230469	0.0859539184570313	-0.138658782958984	-0.2654649913311	0.353779882192612	1.31321251392365	-0.892570316791534	-0.694822251796722	-0.423346608877182	-0.510710693359375	-0.14456169128418	0.853025451660156	0.0873169600963593	-0.173465192317963	-0.173507899045944	0.170884415507317	1.12939655780792	-0.882324159145355	0.989268310546875	-0.0625458984375	-0.1381728515625	3.06389832496643	-0.613641500473022	-0.351941466331482	-0.785158038139343	0.256353706121445	-0.58838015794754	0.971166809082031	-0.0195294017791748	-0.230935958862305	0.791199922561646	0.17746764421463	0.177963927388191	-0.711435735225677	-0.842781484127045	0.449202597141266	-0.520028198242187	0.0185215167999268	0.852600341796875	-1.48559439182281	0.342613130807877	0.0	-0.131838381290436	1.06251001358032	-1.09569799900055	0.97074072265625	0.1171435546875	-0.205583953857422	0.615325152873993	-0.0886297523975372	-0.61037015914917	-0.786607325077057	-0.432134747505188	1.04002594947815	0.989783813476563	-0.0117183179855347	-0.169941757202148	0.60912674665451	0.0	-0.789654910564423	-0.928701221942902	0.414562493562698	-0.903811633586884
0.906748718261719	0.0639670906066895	-0.432137817382812	3.58667922019958	4.28473711013794	1.22492432594299	-0.791011691093445	0.418208837509155	0.516849517822266	0.94141845703125	0.178221893310547	0.294926910400391	1.31199312210083	0.0	0.0877305418252945	-0.702891051769257	-0.664544761180878	-0.320552885532379	1.00780499267578	0.0356431770324707	0.023433744430542	-0.259325295686722	-1.04837989807129	0.962204933166504	-0.910155415534973	-0.30761381983757	0.436278313398361	0.937979675292969	0.340810089111328	0.166021881103516	0.0881974920630455	-1.31180894374847	1.4020664691925	-0.720469415187836	-0.772465407848358	0.196772307157516	0.99952392578125	-0.0336858749389648	-0.0073226542472839	1.75005340576172	0.699496209621429	0.700032591819763	-0.816407382488251	-0.0454054176807404	-0.561034083366394	0.948720642089844	-0.27197998046875	0.161133636474609	0.960510551929474	0.524440705776215	0.87500536441803	-0.714608192443848	-0.181882828474045	-0.607416808605194	0.982917907714844	-0.0175774993896484	0.179210998535156	1.83660995960236	0.0	0.522743701934814	-0.850825607776642	0.592767298221588	-0.0400460995733738	0.978505554199219	-0.0220192832946777	-0.198719436645508	1.57142770290375	0.346743643283844	0.0	-0.774406373500824	-0.484384566545486	0.624754369258881	0.9916630859375	0.0825062561035156	-0.162094833374023	0.612611532211304	0.433665663003922	0.0	-0.895006000995636	-0.69360888004303	-0.421869575977325	-0.510227508544922	-0.14701188659668	0.840767333984375	0.785852611064911	-0.346930384635925	0.347015798091888	0.170884415507317	1.12939655780792	-0.882574856281281	0.989779113769531	-0.0625458984375	-0.146509399414062	2.18172335624695	-0.785100162029266	-0.611266732215881	-0.783943951129913	0.252680242061615	-0.591312348842621	0.979013244628906	-0.0131811351776123	-0.240251724243164	0.697009444236755	0.266201466321945	0.348512709140778	-0.711659908294678	-0.842781484127045	0.449202597141266	-0.515601623535156	0.0219439697265625	0.85737548828125	0.0	0.0	-0.0852276980876923	-0.134265705943108	1.06251001358032	-1.09545397758484	0.97074072265625	0.11479833984375	-0.20069026184082	0.0	0.697959303855896	-0.256355464458466	-0.786607325077057	-0.435780793428421	1.04002594947815	0.989783813476563	-0.0165605983734131	-0.173343048095703	-0.176843255758286	-0.350612640380859	-0.171664118766785	-0.929946184158325	0.414562493562698	-0.902355015277863
0.90476513671875	0.0659247207641602	-0.424802551269531	4.11121320724487	4.02125215530396	0.873831331729889	-0.788575172424316	0.416991800069809	0.515625715255737	0.938944152832031	0.180180740356445	0.291991271972656	0.873401701450348	0.524051189422607	0.0	-0.70167464017868	-0.665531098842621	-0.307616025209427	1.00295092773438	0.030280740737915	0.0200170421600342	0.784150302410126	-0.786284923553467	0.0	-0.910155415534973	-0.302733570337296	0.435055166482925	0.935521301269531	0.33495947265625	0.172369369506836	-0.352789968252182	-2.00993919372559	1.83807492256165	-0.71925014257431	-0.77489560842514	0.192387014627457	0.995119689941406	-0.0405303535461426	-0.0097652826309204	0.875026702880859	0.611176013946533	1.22462272644043	-0.816407382488251	-0.0454054176807404	-0.561034083366394	0.945786926269531	-0.272461578369141	0.154302291870117	0.78882509469986	0.524440705776215	0.699026584625244	-0.715815424919128	-0.183103084564209	-0.594723761081696	0.9838740234375	-0.0151480884552002	0.193360931396484	1.39767169952393	0.0877278745174408	0.263279676437378	-0.849607348442078	0.595218241214752	-0.0385669060051441	0.9912265625	-0.014230149269104	-0.204560028076172	1.48920178413391	0.0904548615217209	0.0	-0.774406373500824	-0.484384566545486	0.624988973140717	0.988813110351562	0.0849433975219726	-0.151382766723633	1.1367347240448	-0.353779882192612	0.263583868741989	-0.897472500801086	-0.692395508289337	-0.420417129993439	-0.507811676025391	-0.143091567993164	0.8486669921875	0.0	-0.346930384635925	0.0	0.170884415507317	1.12939655780792	-0.882825553417206	0.979971252441406	-0.0712942810058594	-0.137722213745117	2.18172335624695	-0.875341534614563	-0.784150302410126	-0.782729804515839	0.24902255833149	-0.594244480133057	0.98487451171875	-0.005379065990448	-0.227072021484375	0.433276116847992	0.17746764421463	0.177963927388191	-0.711916089057922	-0.842781484127045	0.449202597141266	-0.515070495605469	0.0219439697265625	0.860764343261719	-0.0838641971349716	0.18032269179821	0.0	-0.136727705597878	1.06251001358032	-1.09520995616913	0.9731650390625	0.114212036132812	-0.21336491394043	0.177011355757713	0.435762941837311	0.78127384185791	-0.786607325077057	-0.43945324420929	1.04002594947815	0.992216125488281	-0.0131710023880005	-0.169450012207031	0.60912674665451	-0.436317950487137	-0.789654910564423	-0.931155562400818	0.414562493562698	-0.900869250297546
0.900886169433594	0.0624954986572266	-0.432608673095703	3.67173886299133	3.67223763465881	1.13715100288391	-0.785900890827179	0.416991800069809	0.512933373451233	0.950191101074219	0.184081832885742	0.301267822265625	1.22503101825714	0.0	0.349782824516296	-0.704107522964478	-0.668223083019257	-0.308837711811066	1.00734704589844	0.0322171745300293	0.0209948863983154	0.0	-0.698919892311096	0.438281834125519	-0.914057731628418	-0.306639760732651	0.436516970396042	0.94043798828125	0.342784088134766	0.171875839233398	-0.0881974920630455	-1.05001020431519	0.521500289440155	-0.71925014257431	-0.77489560842514	0.192387014627457	0.99559326171875	-0.0405303535461426	-0.0073226542472839	1.39913129806519	1.04924428462982	0.0868526771664619	-0.813964664936066	-0.0415093898773193	-0.553223133087158	0.949698547363281	-0.270505004882812	0.146978591918945	1.3131617307663	0.086777962744236	0.87500536441803	-0.713369131088257	-0.179200783371925	-0.597663640975952	0.9882958984375	-0.0195210266113281	0.172377777099609	1.74805223941803	0.611514866352081	0.610503613948822	-0.850825607776642	0.597403168678284	-0.0385669060051441	0.9916875	-0.0131816120147705	-0.194269454956055	0.959301769733429	0.610570311546326	0.0	-0.7780641913414	-0.483150243759155	0.624988973140717	0.9916630859375	0.0844678573608398	-0.153829696655273	0.2654649913311	-0.262481868267059	0.437737494707108	-0.895006000995636	-0.692395508289337	-0.42310044169426	-0.508294830322266	-0.14701188659668	0.849075622558594	0.611218690872192	-0.173465192317963	0.347015798091888	0.170884415507317	1.12816154956818	-0.881352663040161	0.984875183105469	-0.0634509010314941	-0.143580337524414	2.01097965240479	-0.785100162029266	-0.697708487510681	-0.785158038139343	0.250236541032791	-0.596930623054504	0.976555358886719	-0.0204986038208008	-0.227072021484375	0.0	0.788745045661926	0.0889819636940956	-0.703109562397003	-0.841562151908875	0.43211641907692	-0.520028198242187	0.0150990619659424	0.854910888671875	0.0	-0.18032269179821	-0.520835936069489	-0.136727705597878	1.06419491767883	-1.09399008750916	0.978515319824219	0.11479833984375	-0.193839096069336	0.438313812017441	0.350826114416122	0.78127384185791	-0.786607325077057	-0.439215451478958	1.04002594947815	0.990251586914062	-0.0190785846710205	-0.171376037597656	-0.520705163478851	-0.786930620670319	-0.171664118766785	-0.931155562400818	0.414562493562698	-0.900869250297546
0.896963134765625	0.0624954986572266	-0.420887084960938	3.84658360481262	4.3716459274292	1.04937779903412	-0.783196926116943	0.416991800069809	0.510257363319397	0.938494262695313	0.176263046264648	0.291022521972656	0.873401701450348	0.349804162979126	0.0877305418252945	-0.70654034614563	-0.670894503593445	-0.310059398412704	1.00148559570313	0.030280740737915	0.0209948863983154	0.524824976921082	-0.349459946155548	-0.350121676921844	-0.917960107326508	-0.310545921325684	0.437993705272675	0.935050598144531	0.338384246826172	0.175289489746094	0.0	-1.13727641105652	1.22253346443176	-0.71925014257431	-0.77489560842514	0.192387014627457	1.00146557617187	-0.0307594966888428	-0.0004864334464073	1.22594881057739	0.0865538269281387	1.13603293895721	-0.811521887779236	-0.0376022309064865	-0.545412242412567	0.950676513671875	-0.270023376464844	0.153809951782227	0.612499475479126	0.086777962744236	1.39805316925049	-0.710922837257385	-0.175298482179642	-0.600583612918854	0.979989929199219	-0.022464900970459	0.186527709960938	2.18699049949646	0.0	0.698263466358185	-0.852043867111206	0.599607110023499	-0.0385669060051441	0.987815856933594	-0.0146795225143433	-0.195381942749023	1.22425174713135	1.22114062309265	0.175413057208061	-0.781751990318298	-0.481938391923904	0.624988973140717	0.987331176757812	0.0854783782958984	-0.153340301513672	0.871269762516022	-0.433665663003922	0.174153625965118	-0.892570316791534	-0.692395508289337	-0.425783753395081	-0.510710693359375	-0.147991973876953	0.853025451660156	-0.873169600963593	0.607128202915192	-0.527197062969208	0.170884415507317	1.12696170806885	-0.879879772663116	0.989268310546875	-0.0634509010314941	-0.141101913452148	2.18172335624695	-0.261700034141541	-1.13609170913696	-0.787586212158203	0.251466274261475	-0.599616706371307	0.975609985351563	-0.0078020687103271	-0.228977523803711	-0.527466595172882	0.700011253356934	0.0	-0.694335103034973	-0.840342819690704	0.415030211210251	-0.520559387207031	0.017615571975708	0.858915893554687	-0.179709002375603	0.613097190856934	0.170455396175385	-0.136727705597878	1.06591641902924	-1.09277009963989	0.980020080566406	0.118667945861816	-0.203137100219727	0.0	0.262196362018585	0.0854518264532089	-0.786607325077057	-0.438977688550949	1.04002594947815	0.993619445800781	-0.0170448265075684	-0.17235954284668	-0.176843255758286	-0.436317950487137	-1.05287325382233	-0.931155562400818	0.414562493562698	-0.900869250297546
0.9023408203125	0.0629950294494629	-0.421382720947266	4.11121320724487	3.67223763465881	0.961604595184326	-0.784415245056152	0.419191271066666	0.506341218948364	0.937009643554688	0.184081832885742	0.296380035400391	0.699477553367615	0.262025594711304	0.611835062503815	-0.705323934555054	-0.667236685752869	-0.314695298671722	1.00295092773438	0.031727746963501	0.023433744430542	0.876766443252563	-0.436824947595596	-0.438281834125519	-0.917960107326508	-0.310307383537292	0.437993705272675	0.937979675292969	0.339834991455078	0.17382258605957	-0.176394984126091	-0.610863864421844	1.4020664691925	-0.720469415187836	-0.772222399711609	0.201414808630943	0.9917099609375	-0.0400426216125488	-0.015623405456543	0.610695719718933	0.0865538269281387	0.786885261535645	-0.813964664936066	-0.0402849242091179	-0.551764130592346	0.948255004882812	-0.263672027587891	0.147458633422852	-0.264488399028778	0.524440705776215	1.48604261875153	-0.713369131088257	-0.176760256290436	-0.594962120056152	0.978496032714844	-0.022464900970459	0.173344741821289	1.74805223941803	-1.31075763702393	-0.263279676437378	-0.854480385780334	0.598391175270081	-0.0371031202375889	0.98385205078125	-0.0155782690048218	-0.195381942749023	1.05066382884979	0.173371821641922	0.175413057208061	-0.775635659694672	-0.483150243759155	0.617925882339478	0.985849182128906	0.0873805465698242	-0.147467697143555	0.176976665854454	0.0	0.0	-0.892570316791534	-0.692395508289337	-0.425783753395081	-0.513609741210937	-0.144071655273437	0.8486669921875	0.0	0.433663010597229	0.0	0.169693693518639	1.131831407547	-0.884047746658325	0.994172241210938	-0.0571158676147461	-0.143580337524414	2.36195254325867	-0.875341534614563	-0.611266732215881	-0.787586212158203	0.251466274261475	-0.599616706371307	0.973152038574219	-0.0097889308929443	-0.235329193115234	-0.960742712020874	0.966212689876556	0.697025418281555	-0.697985827922821	-0.841562151908875	0.433365017175674	-0.516664001464844	0.0282855758666992	0.854910888671875	-0.790719568729401	0.342613130807877	0.0	-0.133052051067352	1.06346237659454	-1.09691786766052	0.973666625976563	0.112804901123047	-0.208030792236328	0.0	0.0	-0.78127384185791	-0.784193933010101	-0.439215451478958	1.04126489162445	0.988754699707031	-0.0277946891784668	-0.171376037597656	-0.0884216278791428	-0.525918960571289	-0.263218313455582	-0.932364940643311	0.413329988718033	-0.900869250297546
0.899916442871094	0.0590797805786133	-0.423340454101563	4.28605794906616	5.15796279907227	1.48629343509674	-0.785633504390717	0.421390742063522	0.502441346645355	0.941913330078125	0.181160171508789	0.299315643310547	0.699477553367615	0.17424701154232	0.524104535579681	-0.704107522964478	-0.663578927516937	-0.31933119893074	1.00537799072266	0.0327066040039063	0.0229505748748779	0.611266732215881	-0.349459946155548	0.438281834125519	-0.917960107326508	-0.310058891773224	0.437993705272675	0.938502685546875	0.343259735107422	0.172849212646484	0.699280083179474	-0.87547767162323	0.0854918509721756	-0.721688687801361	-0.769522249698639	0.210455447435379	0.996114196777344	-0.0390671615600586	-0.0078143181800842	0.788435518741608	-0.349748104810715	1.04918026924133	-0.816407382488251	-0.0429676175117493	-0.558098316192627	0.942853149414063	-0.279294586181641	0.15185285949707	0.0	-0.348998337984085	0.87500536441803	-0.715815424919128	-0.17822203040123	-0.589360535144806	0.990745910644531	-0.0102606859207153	0.189944320678711	2.00987505912781	-0.263183623552322	0.263279676437378	-0.856946647167206	0.597175180912018	-0.0356393344700336	0.981455383300781	-0.0205213737487793	-0.196355377197266	1.22425174713135	1.04776883125305	0.526239156723022	-0.769519329071045	-0.484384566545486	0.610836803913116	0.980035339355469	0.083992317199707	-0.160137298583984	1.1367347240448	-0.171183824539185	0.960198402404785	-0.892570316791534	-0.692395508289337	-0.425783753395081	-0.503463134765625	-0.139171249389648	0.849075622558594	0.174633920192719	0.346930384635925	0.260261833667755	0.168468967080116	1.13673627376556	-0.888184368610382	0.993150573730469	-0.0620431175231934	-0.145044876098633	1.92560791969299	-0.523400068283081	-0.438383221626282	-0.787586212158203	0.251466274261475	-0.599616706371307	0.971166809082031	-0.0087712697982788	-0.236811248779297	-2.10044741630554	0.0887338221073151	0.0889819636940956	-0.701668500900269	-0.842781484127045	0.451666951179504	-0.518611694335937	0.020534725189209	0.860764343261719	-0.527146399021149	-0.18032269179821	-0.265152812004089	-0.129411056637764	1.06104481220245	-1.10106563568115	0.975087829589844	0.107879951477051	-0.198243408203125	-0.0842911154031754	0.0886297523975372	-0.256355464458466	-0.781751871109009	-0.43945324420929	1.0424712896347	0.983422241210937	-0.0253735485076904	-0.17235954284668	0.353686511516571	-0.17530632019043	-1.31609153747559	-0.933609902858734	0.412097454071045	-0.900869250297546
0.900886169433594	0.0634810600280762	-0.431146575927734	4.63574743270874	4.1095404624939	1.57406675815582	-0.785633504390717	0.421874642372131	0.50195187330246	0.935525024414062	0.179201324462891	0.297847839355469	0.960363805294037	-0.0877785682678223	0.43751335144043	-0.704107522964478	-0.663578927516937	-0.319091230630875	0.999012817382812	0.0278335971832275	0.0209948863983154	0.0	0.0	0.7858846783638	-0.912840247154236	-0.30640122294426	0.4377401471138	0.93698583984375	0.342784088134766	0.16308805847168	0.264592468738556	-0.610863864421844	0.872016906738281	-0.720469415187836	-0.7734375	0.205812960863113	0.994125183105469	-0.0424812698364258	-0.00634978723526	0.788435518741608	0.0865538269281387	1.22462272644043	-0.813964664936066	-0.042722724378109	-0.558098316192627	0.947277038574219	-0.272943206787109	0.147458633422852	0.872347712516785	0.086777962744236	1.39805316925049	-0.715815424919128	-0.17822203040123	-0.589360535144806	0.976583862304688	-0.0190351448059082	0.188461639404297	1.22440659999847	-0.523787021636963	0.0877598896622658	-0.856946647167206	0.597175180912018	-0.0356393344700336	0.97951953125	-0.016177433013916	-0.195799133300781	0.877075910568237	0.173371821641922	0.701652228832245	-0.771977841854095	-0.486808270215988	0.619150876998901	0.991207092285156	0.0898176879882813	-0.156276611328125	0.435634881258011	0.524963736534119	-0.348307251930237	-0.89136791229248	-0.691152513027191	-0.427236169576645	-0.513126525878906	-0.14456169128418	0.854523620605469	-0.261950880289078	-0.173465192317963	-0.527197062969208	0.168468967080116	1.13673627376556	-0.887933671474457	0.984875183105469	-0.0615403366088867	-0.141608856201172	1.6600067615509	-0.437670767307281	-0.259325295686722	-0.787586212158203	0.250000029802322	-0.599616706371307	0.973624694824219	-0.0063482670783996	-0.233900054931641	-1.13970458507538	0.877478897571564	0.526476621627808	-0.701668500900269	-0.842781484127045	0.451404094696045	-0.519497009277344	0.0214406681060791	0.858453735351563	-0.263573199510574	0.342613130807877	-0.350380510091782	-0.129411056637764	1.06104481220245	-1.10106563568115	0.980939636230469	0.115267379760742	-0.201179626464844	0.438313812017441	0.786589026451111	0.0	-0.779309809207916	-0.438237905502319	1.03833043575287	0.986322387695313	-0.0195628128051758	-0.167974746704102	-0.60912674665451	-0.436317950487137	-0.354772508144379	-0.932364940643311	0.413329988718033	-0.899645686149597
0.894538818359375	0.0595658111572266	-0.420887084960938	4.72080707550049	3.49704074859619	1.22492432594299	-0.785633504390717	0.422358512878418	0.501462340354919	0.939933898925781	0.179682739257813	0.296380035400391	1.31199312210083	0.349804162979126	0.262052267789841	-0.704107522964478	-0.663578927516937	-0.318851232528687	1.00340887451172	0.0366220321655273	0.0219727306365967	0.876766443252563	0.174729973077774	-0.523923099040985	-0.907720327377319	-0.302733570337296	0.437501460313797	0.931650756835937	0.341309539794922	0.166501708984375	0.699280083179474	-0.610863864421844	1.05154979228973	-0.71925014257431	-0.777352750301361	0.201170459389687	0.994125183105469	-0.0415058135986328	-0.008787184715271	0.350922167301178	0.261427879333496	1.83606553077698	-0.811521887779236	-0.0424778312444687	-0.558098316192627	0.947742736816406	-0.274418182373047	0.150388122558594	0.612499475479126	-0.262220352888107	0.611037254333496	-0.715815424919128	-0.17822203040123	-0.589360535144806	0.9838740234375	-0.0088030405044555	0.184078063964844	2.00987505912781	-0.0877278745174408	0.175519779324532	-0.856946647167206	0.597175180912018	-0.0356393344700336	0.982930236816406	-0.0175255527496338	-0.204142837524414	1.22425174713135	0.346743643283844	-0.175413057208061	-0.774406373500824	-0.48925444483757	0.627438902854919	0.975589416503906	0.0805446472167969	-0.15089338684082	-0.088488332927227	0.787445545196533	0.701321363449097	-0.890134632587433	-0.689939141273499	-0.428713232278824	-0.517636108398438	-0.153284393310547	0.841312133789063	-0.523901760578156	0.260197788476944	0.0	0.168468967080116	1.13673627376556	-0.887682974338531	0.992231079101562	-0.0620431175231934	-0.144030975341797	1.05291855335236	-0.261700034141541	-0.611266732215881	-0.787586212158203	0.248533815145493	-0.599616706371307	0.970694091796875	-0.014150336265564	-0.236811248779297	-0.612237989902496	0.0	0.437494665384293	-0.701668500900269	-0.842781484127045	0.451174080371857	-0.516664001464844	0.0248631229400635	0.8623046875	-0.527146399021149	0.0	-0.170455396175385	-0.129411056637764	1.06104481220245	-1.10106563568115	0.973666625976563	0.111866813659668	-0.201668991088867	-0.0842911154031754	0.697959303855896	-0.0854518264532089	-0.776867747306824	-0.437022566795349	1.03418970108032	0.985854614257813	-0.01811012840271	-0.170884292602539	0.785970032215118	-0.17530632019043	-0.171664118766785	-0.931155562400818	0.414562493562698	-0.898451209068298
0.9023408203125	0.0634810600280762	-0.429188842773437	6.20934963226318	3.41013216972351	1.66183996200562	-0.788099706172943	0.423340946435928	0.503175675868988	0.94141845703125	0.184081832885742	0.301267822265625	1.48591721057892	0.0877785682678223	0.0	-0.704107522964478	-0.663578927516937	-0.318851232528687	1.00633959960937	0.0361326065063477	0.0190391979217529	0.351941466331482	0.087364986538887	0.438281834125519	-0.910405158996582	-0.303956121206284	0.434816509485245	0.934579833984375	0.345709381103516	0.177729782104492	0.0	-0.261798799037933	0.170983701944351	-0.718030869960785	-0.776110649108887	0.193608731031418	0.99952392578125	-0.0400426216125488	-0.0117162466049194	0.350922167301178	0.0	1.48691785335541	-0.811521887779236	-0.0424778312444687	-0.558098316192627	0.950210815429688	-0.272461578369141	0.149908081054688	0.436173856258392	1.04888141155243	1.48604261875153	-0.713369131088257	-0.180662557482719	-0.596432089805603	0.982917907714844	-0.0078026947975158	0.187978164672852	1.83660995960236	-0.0877278745174408	0.175519779324532	-0.852043867111206	0.59863817691803	-0.0385669060051441	0.97998046875	-0.0175255527496338	-0.198719436645508	0.703487992286682	-0.263826668262482	0.0	-0.774406373500824	-0.48925444483757	0.627438902854919	0.990181091308594	0.0873805465698242	-0.152850921630859	0.176976665854454	0.0	-0.263583868741989	-0.89136791229248	-0.69360888004303	-0.426029920578003	-0.504429473876953	-0.139661285400391	0.856021850585937	0.0873169600963593	0.954058587551117	0.527197062969208	0.172109141945839	1.13694798946381	-0.887933671474457	0.993661437988281	-0.0571158676147461	-0.136708312988281	2.01097965240479	-0.437670767307281	-1.04964995384216	-0.786372125148773	0.253909975290298	-0.596930623054504	0.973152038574219	-0.0151195373535156	-0.234852813720703	-0.348504722118378	0.266201466321945	0.786007344722748	-0.701668500900269	-0.84522020816803	0.447263985872269	-0.521975830078125	0.0150990619659424	0.853062438964844	0.347437381744385	0.0	-0.700761020183563	-0.133052051067352	1.06371867656708	-1.10130953788757	0.9731650390625	0.107410903930664	-0.199222152709961	0.0	0.173566594719887	1.22074031829834	-0.781751871109009	-0.438237905502319	1.03712403774261	0.987819213867188	-0.0185943565368652	-0.17235954284668	0.353686511516571	-0.17530632019043	-0.354772508144379	-0.934819281101227	0.414562493562698	-0.898189008235931
0.897932922363281	0.0615234375	-0.420416229248047	6.03450536727905	3.9343433380127	1.74766266345978	-0.790536284446716	0.424323379993439	0.504888951778412	0.936514770507813	0.182621002197266	0.296380035400391	0.699477553367615	0.0877785682678223	-0.349782824516296	-0.704107522964478	-0.663578927516937	-0.318851232528687	1.00194354248047	0.0336854629516602	0.0219727306365967	1.22253346443176	0.786284923553467	-0.0881601348519325	-0.913089990615845	-0.305178672075272	0.43213152885437	0.938502685546875	0.347659606933594	0.167475082397461	-0.61108261346817	-0.962743937969208	0.170983701944351	-0.71681159734726	-0.77489560842514	0.186034128069878	0.994125183105469	-0.0463831100463867	-0.0009780973792076	0.43751335144043	-0.0865538269281387	1.22462272644043	-0.811521887779236	-0.0424778312444687	-0.558098316192627	0.950210815429688	-0.274418182373047	0.144049118041992	0.872347712516785	0.524440705776215	1.05098402500153	-0.710922837257385	-0.183103084564209	-0.60352349281311	0.983395935058594	-0.0107465686798096	0.183594589233398	1.48622941970825	0.0	0.786023378372192	-0.847170829772949	0.600101113319397	-0.041509885340929	0.98385205078125	-0.012133074760437	-0.199275680541992	0.785713851451874	0.173371821641922	0.0877065286040306	-0.774406373500824	-0.48925444483757	0.627438902854919	0.9848232421875	0.077631965637207	-0.159647918701172	0.612611532211304	-0.262481868267059	0.875474989414215	-0.892570316791534	-0.697278618812561	-0.423346608877182	-0.513126525878906	-0.14946208190918	0.848122192382813	-0.261950880289078	0.0	-0.0867539495229721	0.175783351063728	1.13719499111176	-0.888184368610382	0.993661437988281	-0.058624210357666	-0.140651275634766	2.27658081054688	-0.613641500473022	-0.876766443252563	-0.785158038139343	0.259270399808884	-0.594244480133057	0.979013244628906	-0.0151195373535156	-0.232418014526367	-0.87597131729126	0.266201466321945	0.437494665384293	-0.701668500900269	-0.847658932209015	0.443353861570358	-0.524454711914062	0.0150990619659424	0.8623046875	0.0838641971349716	0.18032269179821	-0.350380510091782	-0.136727705597878	1.0663925409317	-1.10155355930328	0.976091003417969	0.113742988586426	-0.204605209350586	0.177011355757713	0.613022446632385	-1.13528859615326	-0.786607325077057	-0.43945324420929	1.04002594947815	0.988286987304687	-0.0160763702392578	-0.178711364746094	0.60912674665451	-0.786930620670319	-0.526436626911163	-0.938482999801636	0.414562493562698	-0.89795595407486
0.899916442871094	0.0576216850280762	-0.426760284423828	5.59503078460693	3.58532905578613	1.39852023124695	-0.789318025112152	0.424323379993439	0.503665149211884	0.937999389648438	0.180662155151367	0.296879089355469	0.786439657211304	0.524051189422607	0.0	-0.704107522964478	-0.663578927516937	-0.315916985273361	0.99608203125	0.0307701683044434	0.0219727306365967	-0.0864417627453804	0.087364986538887	-0.261961549520493	-0.914307534694672	-0.30640122294426	0.430908381938934	0.930186279296875	0.339834991455078	0.167968627929688	-0.875675082206726	-0.174532532691956	0.170983701944351	-0.71681159734726	-0.77489560842514	0.186034128069878	0.997061340332031	-0.0488217582702637	-0.0068362207412719	0.173182368278503	0.699496209621429	1.83606553077698	-0.811521887779236	-0.041264496743679	-0.548828363418579	0.952166625976563	-0.273921508789063	0.143556762695313	0.264488399028778	0.437662780284882	1.48604261875153	-0.712161839008331	-0.179442301392555	-0.60205352306366	0.977539916992187	-0.01660573387146	0.187978164672852	2.36025547981262	0.0	0.438799470663071	-0.849607348442078	0.596434235572815	-0.0454081781208515	0.985880065917969	-0.0166268062591553	-0.197746002197266	0.785713851451874	0.0	-0.0877065286040306	-0.775635659694672	-0.488042563199997	0.626213908195496	0.990181091308594	0.083992317199707	-0.144531387329102	0.435634881258011	-0.0912980362772942	0.522460877895355	-0.892570316791534	-0.697278618812561	-0.42310044169426	-0.510227508544922	-0.14946208190918	0.854523620605469	-0.174633920192719	0.0	0.347015798091888	0.170884415507317	1.13694798946381	-0.890628755092621	0.9873271484375	-0.0634509010314941	-0.135243789672852	0.701945722103119	-0.875341534614563	-1.04964995384216	-0.786372125148773	0.256590187549591	-0.593998432159424	0.971639465332031	-0.0263622703552246	-0.235329193115234	0.263733297586441	0.0887338221073151	0.697025418281555	-0.704102337360382	-0.8478924036026	0.430900663137436	-0.510289825439453	0.0258697261810303	0.851984191894531	-0.790719568729401	0.0	-0.265152812004089	-0.134265705943108	1.06785774230957	-1.09496605396271	0.978515319824219	0.115736419677734	-0.210918075561523	0.0	0.0886297523975372	0.78127384185791	-0.786607325077057	-0.439215451478958	1.04002594947815	0.991654846191406	-0.0126867742538452	-0.179694869995117	0.0884216278791428	-0.350612640380859	-1.13298320770264	-0.938482999801636	0.41431599855423	-0.89795595407486
0.894538818359375	0.0595658111572266	-0.423340454101563	5.3351263999939	4.45855474472046	1.04937779903412	-0.788099706172943	0.424323379993439	0.502441346645355	0.936514770507813	0.177740478515625	0.306640014648437	0.699477553367615	0.699608325958252	0.43751335144043	-0.704107522964478	-0.663578927516937	-0.31299364566803	1.00148559570313	0.0371114616394043	0.0253894329071045	1.04964995384216	0.786284923553467	0.0881601348519325	-0.915525019168854	-0.30761381983757	0.429685205221176	0.933586059570312	0.342784088134766	0.171382293701172	-0.699280083179474	-0.261798799037933	0.170983701944351	-0.71681159734726	-0.77489560842514	0.186034128069878	0.999997497558594	-0.0463831100463867	-0.0043935923576355	0.875026702880859	0.0	1.04918026924133	-0.811521887779236	-0.0400400310754776	-0.539558470249176	0.946299133300781	-0.272943206787109	0.15185285949707	0.176325604319572	0.262220352888107	2.00909042358398	-0.713369131088257	-0.17578150331974	-0.600583612918854	0.990745910644531	0.0	0.182144134521484	1.74805223941803	0.0877278745174408	0.0877598896622658	-0.852043867111206	0.592767298221588	-0.0493218787014484	0.97951953125	-0.0116837015151978	-0.198719436645508	0.959301769733429	0.173371821641922	0.0	-0.776864945888519	-0.486808270215988	0.624988973140717	0.990181091308594	0.0854783782958984	-0.161116073608398	0.871269762516022	-0.433665663003922	0.0	-0.892570316791534	-0.697278618812561	-0.422854274511337	-0.507811676025391	-0.145541763305664	0.8486669921875	-0.436584800481796	0.260197788476944	0.0	0.16601949930191	1.13673627376556	-0.89307314157486	0.988757446289062	-0.0644564666748047	-0.146960037231445	2.27658081054688	-0.523400068283081	-0.876766443252563	-0.787586212158203	0.253909975290298	-0.593752384185791	0.969276062011719	-0.02490846824646	-0.233423690795898	0.084771417081356	0.266201466321945	0.0889819636940956	-0.706536114215851	-0.848151862621307	0.418447464704514	-0.522861145019531	0.0156023645401001	0.861380493164063	-0.263573199510574	0.18032269179821	-0.170455396175385	-0.131838381290436	1.06932282447815	-1.08837842941284	0.9731650390625	0.11128050994873	-0.202647735595703	0.177011355757713	1.13741517066956	0.170903652906418	-0.786607325077057	-0.438977688550949	1.04002594947815	0.991654846191406	-0.0195628128051758	-0.171867797851563	0.265264868736267	-0.611624300479889	0.0	-0.938482999801636	0.414069473743439	-0.89795595407486
0.900886169433594	0.0600653419494629	-0.426760284423828	6.55903911590576	4.1095404624939	1.48629343509674	-0.788099706172943	0.424558013677597	0.50195187330246	0.945332458496094	0.187982925415039	0.309076568603516	0.699477553367615	0.699608325958252	0.699565649032593	-0.705323934555054	-0.662345945835114	-0.31299364566803	1.002447265625	0.0327066040039063	0.0244115886688232	1.13609170913696	0.698919892311096	-0.612083256244659	-0.915525019168854	-0.30761381983757	0.429685205221176	0.929663208007813	0.33495947265625	0.172369369506836	-1.05207002162933	-0.261798799037933	-0.436008453369141	-0.721688687801361	-0.776110649108887	0.2041025608778	0.99559326171875	-0.0463831100463867	-0.0161150703430176	0.350922167301178	0.0	0.0	-0.812757968902588	-0.0400400310754776	-0.548828363418579	0.942853149414063	-0.276359710693359	0.152345199584961	0.348011076450348	0.262220352888107	1.57403194904327	-0.712161839008331	-0.180662557482719	-0.599371910095215	0.981961853027344	-0.0078026947975158	0.186044235229492	2.00987505912781	-0.874698460102081	0.438799470663071	-0.854480385780334	0.592520296573639	-0.0520029179751873	0.982930236816406	-0.0155782690048218	-0.200666290283203	0.877075910568237	0.263826668262482	0.0877065286040306	-0.7780641913414	-0.484384566545486	0.609872460365295	0.986761169433594	0.0864294586181641	-0.154808456420898	0.347146540880203	-0.433665663003922	0.263583868741989	-0.895006000995636	-0.698491990566254	-0.424306690692902	-0.515059204101562	-0.147991973876953	0.847168823242187	-0.785852611064911	0.0	-0.173507899045944	0.167244225740433	1.13550126552582	-0.886460781097412	0.993661437988281	-0.0571158676147461	-0.137215270996094	0.521716415882111	-0.875341534614563	-0.351941466331482	-0.787586212158203	0.253909975290298	-0.593752384185791	0.975137268066406	-0.0131811351776123	-0.241680847167969	1.4882093667984	-0.17746764421463	0.786007344722748	-0.706536114215851	-0.84545373916626	0.430900663137436	-0.526933532714844	0.0126832122802734	0.857837585449219	0.347437381744385	0.342613130807877	0.0	-0.131838381290436	1.06565999984741	-1.09252619743347	0.9731650390625	0.11479833984375	-0.20069026184082	1.04520988464355	0.173566594719887	-0.170903652906418	-0.784193933010101	-0.43675833940506	1.03979766368866	0.991187072753906	-0.0117183179855347	-0.172851303100586	-0.0884216278791428	-0.786930620670319	-0.789654910564423	-0.937273621559143	0.41431599855423	-0.902092814445496
0.9042802734375	0.0566361236572266	-0.425298156738281	6.99378824234009	3.05973839759827	1.48629343509674	-0.788099706172943	0.424807280302048	0.501462340354919	0.936514770507813	0.17676106262207	0.302251251220703	0.525553405284882	0.524051189422607	-0.262052267789841	-0.70654034614563	-0.661133527755737	-0.31299364566803	1.00148559570313	0.031727746963501	0.0185560283660889	0.963208198547363	0.61155492067337	-0.438281834125519	-0.915525019168854	-0.30761381983757	0.429685205221176	0.931650756835937	0.341785186767578	0.155767181396484	-0.787477612495422	-0.523597598075867	0.436008453369141	-0.726565837860107	-0.777352750301361	0.222171008586884	1.00047106933594	-0.0439444618225098	-0.0009780973792076	0.961617887020111	-0.174874052405357	0.349147766828537	-0.813964664936066	-0.0400400310754776	-0.558098316192627	0.951654418945313	-0.279294586181641	0.143064422607422	0.612499475479126	0.348998337984085	1.75001072883606	-0.710922837257385	-0.185543611645699	-0.598140358924866	0.986802001953125	-0.0078026947975158	0.194811386108398	1.13584887981415	-0.0877278745174408	0.0877598896622658	-0.856946647167206	0.592292308807373	-0.0546839572489262	0.990212585449219	-0.0092870445251464	-0.196355377197266	1.05066382884979	0.0904548615217209	0.701652228832245	-0.779293477535248	-0.481938391923904	0.594729900360107	0.986761169433594	0.0829817962646484	-0.159647918701172	0.347146540880203	-0.262481868267059	0.611891150474548	-0.897472500801086	-0.699705362319946	-0.425783753395081	-0.505878997802734	-0.142601531982422	0.850573791503906	0.785852611064911	-0.173465192317963	0.173507899045944	0.168468967080116	1.13426613807678	-0.879879772663116	0.994580932617187	-0.0615403366088867	-0.150396041870117	0.872689306735992	0.0	-0.351941466331482	-0.787586212158203	0.253909975290298	-0.593752384185791	0.970221435546875	-0.0214678039550781	-0.240728103637695	0.960742712020874	0.345075964927673	0.963971316814423	-0.706536114215851	-0.842781484127045	0.443353861570358	-0.516664001464844	0.0234538764953613	0.8623046875	0.263573199510574	-0.342613130807877	-0.170455396175385	-0.131838381290436	1.06199717521667	-1.09667384624481	0.978013732910156	0.115267379760742	-0.209449966430664	0.960918784141541	-0.173566594719887	-0.170903652906418	-0.781751871109009	-0.434565454721451	1.03953683376312	0.989222473144531	-0.0136552305221558	-0.174326553344727	0.265264868736267	-0.17530632019043	-1.05287325382233	-0.936028659343719	0.414562493562698	-0.906258761882782
